TS_Machine,ax,ay,az
1555570885.9189,-47,29,-36
1555570885.95016,-47,29,-36
1555570885.98141,-47,28,-36
1555570886.01266,-48,29,-36
1555570886.04391,-47,28,-36
1555570886.07516,-47,29,-36
1555570886.10641,-47,29,-36
1555570886.13766,-47,29,-36
1555570886.16892,-47,29,-35
1555570886.20017,-48,29,-36
1555570886.23142,-47,29,-36
1555570886.26267,-47,29,-36
1555570886.29392,-47,29,-36
1555570886.32517,-47,29,-36
1555570886.35642,-47,28,-36
1555570886.38768,-47,29,-36
1555570886.41893,-47,29,-36
1555570886.45018,-47,29,-36
1555570886.48143,-47,29,-36
1555570886.51268,-47,29,-36
1555570886.54393,-47,29,-35
1555570886.57518,-47,29,-36
1555570886.60644,-47,29,-36
1555570886.63769,-47,28,-36
1555570886.66894,-48,29,-36
1555570886.70019,-47,29,-36
1555570886.73144,-47,28,-36
1555570886.76269,-47,29,-36
1555570886.79395,-47,29,-36
1555570886.8252,-47,29,-36
1555570886.85645,-47,29,-36
1555570886.8877,-47,29,-36
1555570886.91895,-47,28,-36
1555570886.9502,-47,29,-36
1555570886.98145,-47,28,-36
1555570887.01271,-47,29,-36
1555570887.04396,-47,29,-36
1555570887.07521,-46,29,-36
1555570887.10646,-47,29,-36
1555570887.13771,-47,29,-36
1555570887.16896,-47,29,-36
1555570887.20021,-47,29,-36
1555570887.23147,-47,29,-36
1555570887.26272,-47,29,-36
1555570887.29397,-47,29,-36
1555570887.32522,-47,29,-36
1555570887.35647,-47,29,-36
1555570887.38772,-47,29,-36
1555570887.41897,-48,29,-36
1555570887.45023,-47,29,-36
1555570887.48148,-47,29,-36
1555570887.51273,-46,29,-36
1555570887.54398,-47,29,-36
1555570887.57523,-47,28,-36
1555570887.60648,-47,29,-36
1555570887.63773,-47,29,-36
1555570887.66899,-47,29,-36
1555570887.70024,-47,29,-36
1555570887.73149,-46,29,-36
1555570887.76274,-47,29,-36
1555570887.79399,-47,29,-36
1555570887.82524,-47,28,-37
1555570887.85649,-47,28,-36
1555570887.88775,-46,29,-36
1555570887.919,-47,29,-37
1555570887.95025,-47,28,-36
1555570887.9815,-47,28,-36
1555570888.01275,-47,29,-37
1555570888.044,-46,28,-36
1555570888.07525,-47,28,-36
1555570888.10651,-47,28,-36
1555570888.13776,-47,28,-36
1555570888.16901,-47,28,-36
1555570888.20026,-47,28,-36
1555570888.23151,-47,28,-36
1555570888.26276,-47,28,-36
1555570888.29401,-47,28,-36
1555570888.32527,-47,28,-36
1555570888.35652,-47,28,-36
1555570888.38777,-47,28,-36
1555570888.41902,-47,28,-36
1555570888.45027,-47,28,-37
1555570888.48152,-47,28,-36
1555570888.51277,-47,29,-36
1555570888.54403,-47,28,-37
1555570888.57528,-47,28,-36
1555570888.60653,-47,28,-36
1555570888.63778,-47,28,-36
1555570888.66903,-47,28,-36
1555570888.70028,-47,28,-37
1555570888.73153,-47,29,-37
1555570888.76279,-47,28,-36
1555570888.79404,-47,28,-36
1555570888.82529,-47,28,-36
1555570888.85654,-47,28,-36
1555570888.88779,-47,28,-36
1555570888.91904,-47,29,-37
1555570888.95029,-47,28,-37
1555570888.98155,-47,28,-37
1555570889.0128,-47,28,-36
1555570889.04405,-47,28,-36
1555570889.0753,-47,28,-36
1555570889.10655,-47,28,-37
1555570889.1378,-47,28,-37
1555570889.16905,-47,28,-37
1555570889.20031,-47,28,-36
1555570889.23156,-47,28,-37
1555570889.26281,-47,28,-37
1555570889.29406,-47,27,-37
1555570889.32531,-47,27,-37
1555570889.35656,-46,27,-36
1555570889.38782,-47,29,-37
1555570889.41907,-46,28,-36
1555570889.45032,-47,27,-36
1555570889.48157,-47,28,-36
1555570889.51282,-47,28,-37
1555570889.54407,-47,28,-37
1555570889.57532,-47,27,-37
1555570889.60658,-47,28,-37
1555570889.63783,-47,28,-37
1555570889.66908,-47,28,-37
1555570889.70033,-47,28,-37
1555570889.73158,-47,27,-37
1555570889.76283,-47,28,-37
1555570889.79408,-47,28,-37
1555570889.82534,-47,28,-37
1555570889.85659,-47,27,-37
1555570889.88784,-47,28,-37
1555570889.91909,-47,28,-36
1555570889.95034,-47,28,-37
1555570889.98159,-47,28,-37
1555570890.01284,-47,28,-37
1555570890.0441,-46,28,-37
1555570890.07535,-47,28,-37
1555570890.1066,-47,27,-37
1555570890.13785,-47,27,-37
1555570890.1691,-47,27,-37
1555570890.20035,-47,27,-37
1555570890.2316,-47,28,-37
1555570890.26286,-47,28,-37
1555570890.29411,-46,29,-37
1555570890.32536,-46,28,-37
1555570890.35661,-46,28,-37
1555570890.38786,-47,28,-37
1555570890.41911,-47,27,-37
1555570890.45036,-46,27,-37
1555570890.48162,-47,27,-38
1555570890.51287,-47,27,-37
1555570890.54412,-46,27,-37
1555570890.57537,-46,28,-37
1555570890.60662,-46,29,-37
1555570890.63787,-46,28,-37
1555570890.66912,-46,28,-37
1555570890.70038,-46,28,-37
1555570890.73163,-46,28,-37
1555570890.76288,-46,27,-38
1555570890.79413,-47,27,-38
1555570890.82538,-46,27,-37
1555570890.85663,-46,27,-37
1555570890.88788,-46,28,-38
1555570890.91914,-46,28,-38
1555570890.95039,-46,28,-38
1555570890.98164,-46,28,-37
1555570891.01289,-46,28,-38
1555570891.04414,-46,27,-38
1555570891.07539,-46,27,-38
1555570891.10664,-47,27,-38
1555570891.1379,-46,27,-37
1555570891.16915,-46,27,-37
1555570891.2004,-46,28,-38
1555570891.23165,-46,28,-37
1555570891.2629,-47,28,-38
1555570891.29415,-46,27,-38
1555570891.3254,-46,27,-38
1555570891.35666,-46,27,-37
1555570891.38791,-46,27,-37
1555570891.41916,-46,27,-38
1555570891.45041,-47,27,-38
1555570891.48166,-46,27,-38
1555570891.51291,-46,27,-37
1555570891.54416,-46,27,-37
1555570891.57542,-46,27,-37
1555570891.60667,-47,28,-37
1555570891.63792,-47,27,-37
1555570891.66917,-46,28,-37
1555570891.70042,-46,27,-37
1555570891.73167,-47,27,-37
1555570891.76293,-47,27,-37
1555570891.79418,-47,27,-38
1555570891.82543,-46,27,-37
1555570891.85668,-46,27,-38
1555570891.88793,-46,27,-38
1555570891.91918,-46,27,-38
1555570891.95043,-47,28,-38
1555570891.98169,-47,27,-38
1555570892.01294,-46,27,-37
1555570892.04419,-46,28,-38
1555570892.07544,-46,28,-38
1555570892.10669,-46,27,-37
1555570892.13794,-47,27,-38
1555570892.16919,-46,28,-37
1555570892.20045,-46,28,-38
1555570892.2317,-46,28,-38
1555570892.26295,-46,28,-38
1555570892.2942,-46,27,-38
1555570892.32545,-46,27,-37
1555570892.3567,-46,27,-37
1555570892.38795,-47,27,-38
1555570892.41921,-47,27,-38
1555570892.45046,-46,27,-38
1555570892.48171,-46,28,-38
1555570892.51296,-46,28,-38
1555570892.54421,-47,27,-37
1555570892.57546,-46,27,-38
1555570892.60671,-46,28,-38
1555570892.63797,-46,27,-37
1555570892.66922,-46,27,-38
1555570892.70047,-46,27,-38
1555570892.73172,-46,27,-37
1555570892.76297,-46,27,-37
1555570892.79422,-46,27,-38
1555570892.82547,-47,27,-38
1555570892.85673,-46,27,-37
1555570892.88798,-46,27,-38
1555570892.91923,-46,28,-37
1555570892.95048,-46,27,-37
1555570892.98173,-47,27,-38
1555570893.01298,-46,27,-38
1555570893.04423,-46,27,-37
1555570893.07549,-46,28,-38
1555570893.10674,-46,28,-37
1555570893.13799,-46,28,-38
1555570893.16924,-46,27,-37
1555570893.20049,-46,27,-37
1555570893.23174,-46,27,-37
1555570893.26299,-46,27,-37
1555570893.29425,-46,27,-38
1555570893.3255,-47,28,-39
1555570893.35675,-46,27,-37
1555570893.388,-46,28,-37
1555570893.41925,-46,28,-38
1555570893.4505,-46,27,-37
1555570893.48175,-46,27,-38
1555570893.51301,-46,27,-38
1555570893.54426,-47,27,-37
1555570893.57551,-47,27,-37
1555570893.60676,-46,27,-38
1555570893.63801,-46,27,-37
1555570893.66926,-46,27,-38
1555570893.70051,-46,27,-37
1555570893.73177,-47,27,-38
1555570893.76302,-47,27,-37
1555570893.79427,-46,27,-37
1555570893.82552,-46,28,-38
1555570893.85677,-46,28,-37
1555570893.88802,-46,27,-37
1555570893.91927,-47,27,-38
1555570893.95053,-46,27,-37
1555570893.98178,-46,27,-38
1555570894.01303,-46,27,-38
1555570894.04428,-47,27,-38
1555570894.07553,-47,27,-37
1555570894.10678,-46,27,-37
1555570894.13804,-47,27,-38
1555570894.16929,-46,27,-38
1555570894.20054,-46,27,-37
1555570894.23179,-47,28,-37
1555570894.26304,-46,27,-37
1555570894.29429,-46,27,-38
1555570894.32554,-46,27,-38
1555570894.3568,-46,27,-37
1555570894.38805,-46,27,-38
1555570894.4193,-46,27,-38
1555570894.45055,-47,27,-37
1555570894.4818,-47,27,-37
1555570894.51305,-46,27,-38
1555570894.5443,-46,28,-38
1555570894.57556,-46,28,-37
1555570894.60681,-47,27,-38
1555570894.63806,-47,27,-38
1555570894.66931,-46,27,-37
1555570894.70056,-46,27,-37
1555570894.73181,-46,27,-38
1555570894.76306,-46,27,-38
1555570894.79432,-46,27,-38
1555570894.82557,-46,27,-37
1555570894.85682,-46,27,-37
1555570894.88807,-46,27,-37
1555570894.91932,-47,27,-38
1555570894.95057,-47,27,-38
1555570894.98182,-46,27,-37
1555570895.01308,-46,27,-37
1555570895.04433,-46,28,-38
1555570895.07558,-46,27,-37
1555570895.10683,-47,27,-37
1555570895.13808,-47,27,-37
1555570895.16933,-47,27,-38
1555570895.20058,-47,27,-38
1555570895.23184,-47,27,-38
1555570895.26309,-46,27,-37
1555570895.29434,-46,27,-37
1555570895.32559,-46,27,-37
1555570895.35684,-47,27,-38
1555570895.38809,-47,27,-38
1555570895.41934,-47,27,-37
1555570895.4506,-46,27,-37
1555570895.48185,-46,27,-37
1555570895.5131,-46,28,-37
1555570895.54435,-46,27,-37
1555570895.5756,-46,27,-38
1555570895.60685,-46,27,-38
1555570895.6381,-46,27,-37
1555570895.66936,-47,27,-38
1555570895.70061,-47,27,-38
1555570895.73186,-46,27,-38
1555570895.76311,-46,27,-38
1555570895.79436,-46,27,-38
1555570895.82561,-47,27,-37
1555570895.85686,-46,27,-37
1555570895.88812,-46,27,-37
1555570895.91937,-46,27,-38
1555570895.95062,-47,27,-38
1555570895.98187,-47,27,-38
1555570896.01312,-46,27,-37
1555570896.04437,-46,27,-37
1555570896.07562,-46,27,-38
1555570896.10688,-46,27,-37
1555570896.13813,-46,27,-37
1555570896.16938,-46,27,-37
1555570896.20063,-46,27,-37
1555570896.23188,-46,27,-38
1555570896.26313,-47,28,-38
1555570896.29438,-46,28,-37
1555570896.32564,-46,27,-37
1555570896.35689,-46,27,-37
1555570896.38814,-47,27,-37
1555570896.41939,-46,27,-37
1555570896.45064,-46,27,-37
1555570896.48189,-46,27,-38
1555570896.51314,-46,27,-38
1555570896.5444,-47,27,-38
1555570896.57565,-47,27,-37
1555570896.6069,-46,27,-37
1555570896.63815,-46,28,-37
1555570896.6694,-46,27,-37
1555570896.70065,-47,27,-38
1555570896.7319,-47,27,-38
1555570896.76316,-46,27,-38
1555570896.79441,-46,27,-37
1555570896.82566,-46,27,-38
1555570896.85691,-46,26,-38
1555570896.88816,-46,27,-37
1555570896.91941,-46,27,-37
1555570896.95067,-46,27,-38
1555570896.98192,-47,27,-38
1555570897.01317,-47,27,-38
1555570897.04442,-46,27,-37
1555570897.07567,-46,28,-38
1555570897.10692,-46,27,-37
1555570897.13817,-46,27,-37
1555570897.16943,-46,27,-37
1555570897.20068,-47,27,-38
1555570897.23193,-47,27,-38
1555570897.26318,-47,27,-38
1555570897.29443,-46,27,-38
1555570897.32568,-46,27,-38
1555570897.35693,-46,27,-38
1555570897.38819,-46,27,-38
1555570897.41944,-47,27,-38
1555570897.45069,-46,27,-37
1555570897.48194,-46,28,-38
1555570897.51319,-46,28,-38
1555570897.54444,-46,27,-37
1555570897.57569,-46,27,-38
1555570897.60695,-46,27,-38
1555570897.6382,-46,27,-37
1555570897.66945,-46,27,-37
1555570897.7007,-46,27,-38
1555570897.73195,-46,27,-38
1555570897.7632,-46,27,-38
1555570897.79445,-47,27,-38
1555570897.82571,-47,27,-37
1555570897.85696,-46,27,-37
1555570897.88821,-46,27,-38
1555570897.91946,-46,28,-38
1555570897.95071,-46,27,-38
1555570897.98196,-46,27,-38
1555570898.01321,-46,27,-38
1555570898.04447,-46,27,-38
1555570898.07572,-46,27,-38
1555570898.10697,-46,27,-38
1555570898.13822,-46,27,-38
1555570898.16947,-46,27,-38
1555570898.20072,-46,27,-38
1555570898.23197,-46,27,-38
1555570898.26323,-46,28,-38
1555570898.29448,-47,27,-37
1555570898.32573,-46,27,-38
1555570898.35698,-46,28,-38
1555570898.38823,-46,27,-38
1555570898.41948,-46,27,-37
1555570898.45073,-46,26,-38
1555570898.48199,-46,26,-38
1555570898.51324,-47,27,-38
1555570898.54449,-47,27,-38
1555570898.57574,-47,27,-37
1555570898.60699,-46,27,-38
1555570898.63824,-46,28,-37
1555570898.66949,-46,28,-37
1555570898.70075,-46,28,-37
1555570898.732,-47,27,-37
1555570898.76325,-47,28,-37
1555570898.7945,-47,28,-37
1555570898.82575,-47,27,-37
1555570898.857,-47,27,-37
1555570898.88825,-47,27,-37
1555570898.91951,-47,27,-37
1555570898.95076,-47,27,-37
1555570898.98201,-47,27,-36
1555570899.01326,-47,28,-36
1555570899.04451,-47,28,-36
1555570899.07576,-47,28,-37
1555570899.10702,-48,27,-37
1555570899.13827,-47,27,-36
1555570899.16952,-47,27,-36
1555570899.20077,-47,28,-37
1555570899.23202,-47,27,-36
1555570899.26327,-47,27,-36
1555570899.29452,-47,28,-36
1555570899.32578,-47,27,-36
1555570899.35703,-48,27,-37
1555570899.38828,-48,27,-36
1555570899.41953,-48,27,-36
1555570899.45078,-47,28,-36
1555570899.48203,-47,28,-36
1555570899.51328,-47,27,-36
1555570899.54454,-48,27,-36
1555570899.57579,-48,27,-36
1555570899.60704,-47,27,-36
1555570899.63829,-47,28,-36
1555570899.66954,-47,27,-36
1555570899.70079,-47,27,-37
1555570899.73204,-47,27,-36
1555570899.7633,-47,27,-36
1555570899.79455,-47,27,-36
1555570899.8258,-48,27,-37
1555570899.85705,-47,27,-36
1555570899.8883,-47,28,-36
1555570899.91955,-47,28,-36
1555570899.9508,-47,28,-36
1555570899.98206,-48,27,-36
1555570900.01331,-48,27,-36
1555570900.04456,-47,27,-36
1555570900.07581,-47,27,-36
1555570900.10706,-47,27,-36
1555570900.13831,-47,27,-37
1555570900.16956,-47,27,-36
1555570900.20082,-47,27,-36
1555570900.23207,-47,27,-36
1555570900.26332,-47,27,-37
1555570900.29457,-48,27,-37
1555570900.32582,-47,27,-37
1555570900.35707,-47,27,-36
1555570900.38832,-47,28,-37
1555570900.41958,-47,28,-37
1555570900.45083,-47,27,-36
1555570900.48208,-48,27,-37
1555570900.51333,-47,27,-37
1555570900.54458,-47,28,-37
1555570900.57583,-47,27,-37
1555570900.60708,-47,27,-37
1555570900.63834,-47,27,-37
1555570900.66959,-47,27,-37
1555570900.70084,-48,27,-37
1555570900.73209,-47,27,-36
1555570900.76334,-47,27,-37
1555570900.79459,-47,28,-37
1555570900.82584,-47,28,-37
1555570900.8571,-47,27,-37
1555570900.88835,-47,27,-37
1555570900.9196,-47,27,-37
1555570900.95085,-47,27,-37
1555570900.9821,-47,27,-37
1555570901.01335,-47,27,-37
1555570901.0446,-47,27,-37
1555570901.07586,-46,28,-37
1555570901.10711,-47,28,-37
1555570901.13836,-47,27,-37
1555570901.16961,-48,27,-37
1555570901.20086,-47,27,-37
1555570901.23211,-47,28,-37
1555570901.26336,-47,27,-37
1555570901.29462,-47,26,-37
1555570901.32587,-46,26,-37
1555570901.35712,-47,27,-37
1555570901.38837,-47,26,-37
1555570901.41962,-47,26,-37
1555570901.45087,-47,28,-38
1555570901.48213,-46,28,-37
1555570901.51338,-46,28,-37
1555570901.54463,-47,27,-37
1555570901.57588,-47,27,-37
1555570901.60713,-47,27,-37
1555570901.63838,-47,27,-37
1555570901.66963,-47,27,-37
1555570901.70089,-47,27,-37
1555570901.73214,-47,27,-37
1555570901.76339,-47,27,-37
1555570901.79464,-46,27,-37
1555570901.82589,-47,27,-37
1555570901.85714,-47,27,-37
1555570901.88839,-46,27,-37
1555570901.91965,-46,27,-37
1555570901.9509,-47,28,-37
1555570901.98215,-47,28,-37
1555570902.0134,-47,27,-37
1555570902.04465,-47,27,-38
1555570902.0759,-47,27,-37
1555570902.10715,-47,27,-37
1555570902.13841,-47,27,-37
1555570902.16966,-47,27,-38
1555570902.20091,-47,27,-37
1555570902.23216,-47,27,-37
1555570902.26341,-47,27,-37
1555570902.29466,-47,27,-37
1555570902.32591,-46,28,-37
1555570902.35717,-46,28,-37
1555570902.38842,-47,27,-37
1555570902.41967,-47,27,-37
1555570902.45092,-47,27,-37
1555570902.48217,-47,27,-37
1555570902.54467,-46,27,-37
1555570902.51342,-47,27,-37
1555570902.57593,-46,27,-37
1555570902.60718,-46,28,-37
1555570902.63843,-47,28,-37
1555570902.66968,-46,28,-36
1555570902.70093,-47,28,-37
1555570902.73218,-47,28,-37
1555570902.76343,-46,28,-38
1555570902.79469,-46,28,-37
1555570902.82594,-47,28,-37
1555570902.85719,-46,28,-36
1555570902.88844,-47,28,-37
1555570902.91969,-47,28,-37
1555570902.95094,-46,28,-38
1555570902.98219,-47,28,-38
1555570903.01345,-46,28,-37
1555570903.0447,-47,28,-38
1555570903.07595,-46,28,-37
1555570903.1072,-47,28,-37
1555570903.13845,-47,28,-37
1555570903.1697,-47,27,-37
1555570903.20095,-47,27,-37
1555570903.23221,-47,27,-37
1555570903.26346,-47,28,-37
1555570903.29471,-47,29,-42
1555570903.32596,-47,27,-39
1555570903.35721,-45,28,-35
1555570903.38846,-46,27,-34
1555570903.41971,-48,26,-34
1555570903.45097,-49,26,-35
1555570903.48222,-47,27,-35
1555570903.51347,-48,27,-36
1555570903.54472,-47,27,-36
1555570903.57597,-47,27,-36
1555570903.60722,-46,27,-36
1555570903.63847,-47,27,-37
1555570903.66973,-47,28,-37
1555570903.70098,-47,28,-37
1555570903.73223,-47,26,-38
1555570903.76348,-47,26,-38
1555570903.79473,-47,26,-38
1555570903.82598,-47,26,-38
1555570903.85723,-47,26,-38
1555570903.88849,-47,26,-38
1555570903.91974,-47,26,-38
1555570903.95099,-47,26,-38
1555570903.98224,-47,26,-38
1555570904.01349,-47,26,-38
1555570904.04474,-47,26,-38
1555570904.076,-47,26,-38
1555570904.10725,-47,26,-38
1555570904.1385,-47,26,-38
1555570904.16975,-47,26,-38
1555570904.201,-47,26,-38
1555570904.23225,-47,26,-38
1555570904.2635,-47,26,-38
1555570904.29476,-47,26,-38
1555570904.32601,-47,26,-38
1555570904.35726,-47,26,-38
1555570904.38851,-47,26,-38
1555570904.41976,-47,26,-38
1555570904.45101,-47,26,-38
1555570904.48226,-47,26,-38
1555570904.51352,-47,26,-38
1555570904.54477,-47,26,-38
1555570904.57602,-47,26,-38
1555570904.60727,-47,26,-38
1555570904.63852,-47,26,-38
1555570904.66977,-47,26,-38
1555570904.70102,-47,26,-38
1555570904.73228,-47,26,-38
1555570904.76353,-47,26,-38
1555570904.79478,-47,26,-38
1555570904.82603,-47,26,-38
1555570904.85728,-47,26,-38
1555570904.88853,-47,26,-38
1555570904.91978,-47,26,-38
1555570904.95104,-47,26,-38
1555570904.98229,-47,26,-38
1555570905.01354,-47,26,-38
1555570905.04479,-47,26,-38
1555570905.07604,-47,26,-38
1555570905.10729,-47,26,-38
1555570905.13854,-47,26,-38
1555570905.1698,-47,26,-38
1555570905.20105,-47,26,-38
1555570905.2323,-47,26,-38
1555570905.26355,-47,26,-38
1555570905.2948,-47,26,-38
1555570905.32605,-47,26,-38
1555570905.3573,-47,26,-38
1555570905.38856,-47,26,-38
1555570905.41981,-47,26,-38
1555570905.45106,-47,26,-38
1555570905.48231,-47,26,-38
1555570905.51356,-47,26,-38
1555570905.54481,-47,26,-38
1555570905.57606,-47,26,-38
1555570905.60732,-47,26,-38
1555570905.63857,-47,26,-38
1555570905.66982,-47,26,-38
1555570905.70107,-47,26,-38
1555570905.73232,-47,26,-38
1555570905.76357,-47,26,-38
1555570905.79482,-47,26,-38
1555570905.82608,-47,26,-38
1555570905.85733,-47,26,-38
1555570905.88858,-47,26,-38
1555570905.91983,-47,26,-38
1555570905.95108,-47,26,-38
1555570905.98233,-47,26,-38
1555570906.01358,-47,26,-38
1555570906.04484,-47,26,-38
1555570906.07609,-47,26,-38
1555570906.10734,-47,26,-38
1555570906.13859,-47,26,-38
1555570906.16984,-47,26,-38
1555570906.20109,-47,26,-38
1555570906.23234,-47,26,-38
1555570906.2636,-47,26,-38
1555570906.29485,-47,26,-38
1555570906.3261,-47,26,-38
1555570906.35735,-47,26,-38
1555570906.3886,-47,26,-38
1555570906.41985,-47,26,-38
1555570906.45111,-47,26,-38
1555570906.48236,-47,26,-38
1555570906.51361,-47,26,-38
1555570906.54486,-47,26,-38
1555570906.57611,-47,26,-38
1555570906.60736,-47,26,-38
1555570906.63861,-47,26,-38
1555570906.66987,-47,26,-38
1555570906.70112,-47,26,-38
1555570906.73237,-47,26,-38
1555570906.76362,-47,26,-38
1555570906.79487,-47,26,-38
1555570906.82612,-47,26,-38
1555570906.85737,-47,26,-38
1555570906.88863,-47,26,-38
1555570906.91988,-47,26,-38
1555570906.95113,-47,26,-38
1555570906.98238,-47,26,-38
1555570907.01363,-47,26,-38
1555570907.04488,-47,26,-38
1555570907.07613,-47,26,-38
1555570907.10739,-47,26,-38
1555570907.13864,-47,26,-38
1555570907.16989,-47,26,-38
1555570907.20114,-47,26,-38
1555570907.23239,-47,26,-38
1555570907.26364,-47,26,-38
1555570907.29489,-47,26,-38
1555570907.32615,-47,26,-38
1555570907.3574,-47,26,-38
1555570907.38865,-47,26,-38
1555570907.4199,-47,26,-38
1555570907.45115,-47,26,-38
1555570907.4824,-47,26,-38
1555570907.51365,-47,26,-38
1555570907.54491,-47,26,-38
1555570907.57616,-47,26,-38
1555570907.60741,-47,26,-38
1555570907.63866,-47,26,-38
1555570907.66991,-47,26,-38
1555570907.70116,-47,26,-38
1555570907.73241,-47,26,-38
1555570907.76367,-47,26,-38
1555570907.79492,-47,26,-38
1555570907.82617,-47,26,-38
1555570907.85742,-47,26,-38
1555570907.88867,-47,27,-38
1555570907.91992,-47,27,-38
1555570907.95117,-47,26,-37
1555570907.98243,-47,27,-37
1555570908.01368,-47,26,-37
1555570908.04493,-47,26,-38
1555570908.07618,-47,26,-38
1555570908.10743,-47,26,-38
1555570908.13868,-47,26,-37
1555570908.16993,-47,26,-38
1555570908.20119,-47,26,-37
1555570908.23244,-47,26,-38
1555570908.26369,-47,26,-37
1555570908.29494,-47,26,-38
1555570908.32619,-47,26,-37
1555570908.35744,-47,26,-38
1555570908.38869,-47,26,-37
1555570908.41995,-47,26,-38
1555570908.4512,-47,25,-38
1555570908.48245,-47,25,-38
1555570908.5137,-47,25,-38
1555570908.54495,-47,26,-38
1555570908.5762,-47,26,-38
1555570908.60746,-47,26,-38
1555570908.63871,-47,26,-38
1555570908.66996,-47,26,-38
1555570908.70121,-47,26,-38
1555570908.73246,-47,25,-38
1555570908.76371,-47,25,-38
1555570908.79496,-48,25,-38
1555570908.82622,-47,25,-38
1555570908.85747,-48,25,-38
1555570908.88872,-47,24,-38
1555570908.91997,-47,25,-38
1555570908.95122,-47,25,-38
1555570908.98247,-47,25,-38
1555570909.01372,-47,25,-38
1555570909.04498,-48,25,-38
1555570909.07623,-47,25,-38
1555570909.10748,-47,25,-38
1555570909.13873,-47,25,-38
1555570909.16998,-48,24,-38
1555570909.20123,-47,24,-38
1555570909.23248,-47,24,-38
1555570909.26374,-48,25,-38
1555570909.29499,-48,25,-38
1555570909.32624,-48,25,-38
1555570909.35749,-47,24,-38
1555570909.38874,-47,24,-38
1555570909.41999,-47,24,-38
1555570909.45124,-47,24,-38
1555570909.4825,-47,25,-38
1555570909.51375,-47,24,-38
1555570909.545,-47,25,-39
1555570909.57625,-47,24,-39
1555570909.6075,-47,24,-39
1555570909.63875,-47,24,-39
1555570909.67,-47,24,-38
1555570909.70126,-47,24,-38
1555570909.73251,-48,24,-38
1555570909.76376,-47,24,-39
1555570909.79501,-48,24,-39
1555570909.82626,-47,24,-39
1555570909.85751,-48,24,-38
1555570909.88876,-48,24,-39
1555570909.92002,-48,24,-39
1555570909.95127,-48,24,-38
1555570909.98252,-47,24,-38
1555570910.01377,-47,24,-38
1555570910.04502,-47,24,-38
1555570910.07627,-48,24,-38
1555570910.10752,-47,24,-38
1555570910.13878,-48,23,-39
1555570910.17003,-48,23,-38
1555570910.20128,-48,23,-38
1555570910.23253,-48,23,-38
1555570910.26378,-48,24,-39
1555570910.29503,-48,24,-38
1555570910.32628,-48,23,-38
1555570910.35754,-48,24,-39
1555570910.38879,-47,24,-38
1555570910.42004,-47,24,-38
1555570910.45129,-47,23,-39
1555570910.48254,-47,23,-39
1555570910.51379,-48,23,-39
1555570910.54504,-48,23,-39
1555570910.5763,-48,23,-39
1555570910.60755,-48,23,-39
1555570910.6388,-48,23,-39
1555570910.67005,-48,23,-39
1555570910.7013,-48,23,-39
1555570910.73255,-48,23,-39
1555570910.7638,-47,23,-39
1555570910.79506,-48,23,-39
1555570910.82631,-48,23,-39
1555570910.85756,-48,23,-39
1555570910.88881,-48,23,-39
1555570910.92006,-48,23,-39
1555570910.95131,-48,23,-39
1555570910.98256,-48,23,-39
1555570911.01382,-48,23,-39
1555570911.04507,-48,23,-39
1555570911.07632,-48,23,-39
1555570911.10757,-48,22,-39
1555570911.13882,-48,23,-39
1555570911.17007,-48,22,-39
1555570911.20132,-48,23,-39
1555570911.23258,-48,23,-39
1555570911.26383,-48,23,-39
1555570911.29508,-48,22,-39
1555570911.32633,-48,23,-39
1555570911.35758,-48,23,-39
1555570911.38883,-48,23,-39
1555570911.42009,-48,23,-39
1555570911.45134,-48,23,-39
1555570911.48259,-48,23,-39
1555570911.51384,-48,23,-39
1555570911.54509,-48,23,-39
1555570911.57634,-48,23,-39
1555570911.60759,-48,23,-39
1555570911.63885,-48,23,-39
1555570911.6701,-48,23,-39
1555570911.70135,-48,22,-39
1555570911.7326,-48,23,-39
1555570911.76385,-48,23,-39
1555570911.7951,-48,23,-39
1555570911.82635,-48,23,-39
1555570911.85761,-48,23,-39
1555570911.88886,-48,23,-39
1555570911.92011,-48,23,-39
1555570911.95136,-48,23,-39
1555570911.98261,-48,22,-39
1555570912.01386,-48,22,-39
1555570912.04511,-48,23,-39
1555570912.07637,-48,23,-39
1555570912.10762,-48,23,-39
1555570912.13887,-48,23,-39
1555570912.17012,-48,23,-39
1555570912.20137,-47,23,-38
1555570912.23262,-48,23,-39
1555570912.26387,-47,23,-39
1555570912.29513,-48,23,-39
1555570912.32638,-48,23,-39
1555570912.35763,-47,23,-39
1555570912.38888,-48,23,-39
1555570912.42013,-47,23,-39
1555570912.45138,-47,23,-39
1555570912.48263,-48,23,-39
1555570912.51389,-47,24,-39
1555570912.54514,-47,24,-39
1555570912.57639,-47,23,-39
1555570912.60764,-47,23,-39
1555570912.63889,-47,24,-39
1555570912.67014,-47,23,-39
1555570912.70139,-47,23,-38
1555570912.73265,-47,24,-39
1555570912.7639,-48,23,-39
1555570912.79515,-48,23,-39
1555570912.8264,-48,23,-39
1555570912.85765,-47,23,-39
1555570912.8889,-47,23,-38
1555570912.92015,-47,23,-38
1555570912.95141,-48,24,-39
1555570912.98266,-48,23,-38
1555570913.01391,-48,24,-38
1555570913.04516,-48,24,-39
1555570913.07641,-48,23,-38
1555570913.10766,-48,23,-38
1555570913.13891,-48,23,-38
1555570913.17017,-48,24,-38
1555570913.20142,-48,23,-38
1555570913.23267,-48,23,-38
1555570913.26392,-48,24,-38
1555570913.29517,-48,24,-39
1555570913.32642,-48,23,-38
1555570913.35767,-48,23,-38
1555570913.38893,-48,24,-38
1555570913.42018,-48,24,-39
1555570913.45143,-47,24,-38
1555570913.48268,-48,23,-38
1555570913.51393,-48,23,-38
1555570913.54518,-48,23,-38
1555570913.57643,-48,24,-38
1555570913.60769,-48,23,-38
1555570913.63894,-48,23,-38
1555570913.67019,-48,23,-38
1555570913.70144,-48,23,-38
1555570913.73269,-48,23,-38
1555570913.76394,-48,23,-38
1555570913.7952,-48,23,-39
1555570913.82645,-48,23,-38
1555570913.8577,-48,23,-38
1555570913.88895,-48,23,-38
1555570913.9202,-48,23,-38
1555570913.95145,-48,24,-38
1555570913.9827,-48,24,-38
1555570914.01396,-48,24,-38
1555570914.04521,-48,24,-38
1555570914.07646,-48,23,-38
1555570914.10771,-48,23,-38
1555570914.13896,-48,22,-38
1555570914.17021,-48,22,-38
1555570914.20146,-48,23,-38
1555570914.23272,-48,23,-38
1555570914.26397,-48,24,-38
1555570914.29522,-48,24,-38
1555570914.32647,-48,23,-38
1555570914.35772,-48,23,-39
1555570914.38897,-48,23,-39
1555570914.42022,-48,23,-38
1555570914.45148,-48,23,-38
1555570914.48273,-48,23,-38
1555570914.51398,-48,23,-38
1555570914.54523,-48,23,-39
1555570914.57648,-48,23,-39
1555570914.60773,-48,23,-38
1555570914.63898,-48,23,-38
1555570914.67024,-48,23,-38
1555570914.70149,-48,23,-38
1555570914.73274,-48,23,-39
1555570914.76399,-48,23,-38
1555570914.79524,-48,23,-38
1555570914.82649,-48,23,-39
1555570914.85774,-48,23,-39
1555570914.889,-48,23,-38
1555570914.92025,-48,23,-37
1555570914.9515,-48,24,-38
1555570914.98275,-48,24,-39
1555570915.014,-48,24,-38
1555570915.04525,-48,24,-38
1555570915.0765,-48,23,-38
1555570915.10776,-48,23,-38
1555570915.13901,-49,22,-38
1555570915.17026,-49,22,-38
1555570915.20151,-48,22,-38
1555570915.23276,-48,23,-38
1555570915.26401,-48,23,-38
1555570915.29526,-48,23,-38
1555570915.32652,-48,23,-38
1555570915.35777,-49,23,-38
1555570915.38902,-48,22,-38
1555570915.42027,-49,22,-38
1555570915.45152,-48,22,-38
1555570915.48277,-48,23,-38
1555570915.51402,-48,24,-38
1555570915.54528,-49,22,-39
1555570915.57653,-50,21,-37
1555570915.60778,-50,23,-37
1555570915.63903,-49,24,-38
1555570915.67028,-47,24,-38
1555570915.70153,-47,24,-37
1555570915.73278,-47,25,-37
1555570915.76404,-47,25,-37
1555570915.79529,-47,25,-38
1555570915.82654,-48,23,-39
1555570915.85779,-49,23,-39
1555570915.88904,-49,22,-38
1555570915.92029,-49,22,-38
1555570915.95155,-49,22,-38
1555570915.9828,-48,22,-38
1555570916.01405,-48,23,-38
1555570916.0453,-48,24,-39
1555570916.07655,-47,23,-39
1555570916.1078,-48,23,-38
1555570916.13905,-48,23,-38
1555570916.17031,-48,24,-39
1555570916.20156,-48,24,-39
1555570916.23281,-48,24,-38
1555570916.26406,-48,23,-39
1555570916.29531,-48,23,-40
1555570916.32656,-48,23,-39
1555570916.35781,-48,22,-39
1555570916.38907,-48,22,-39
1555570916.42032,-48,22,-40
1555570916.45157,-48,22,-39
1555570916.48282,-48,21,-39
1555570916.51407,-48,22,-39
1555570916.54532,-49,22,-38
1555570916.57657,-48,22,-38
1555570916.60783,-49,22,-38
1555570916.63908,-48,22,-38
1555570916.67033,-48,22,-38
1555570916.70158,-49,21,-39
1555570916.73283,-49,21,-39
1555570916.76408,-48,22,-38
1555570916.79533,-49,22,-39
1555570916.82659,-49,22,-38
1555570916.85784,-48,23,-38
1555570916.88909,-48,23,-38
1555570916.92034,-48,23,-38
1555570916.95159,-48,23,-38
1555570916.98284,-48,22,-38
1555570917.01409,-48,22,-38
1555570917.04535,-48,22,-38
1555570917.0766,-49,22,-38
1555570917.10785,-49,23,-38
1555570917.1391,-49,23,-38
1555570917.17035,-49,22,-38
1555570917.2016,-48,23,-39
1555570917.23285,-48,23,-38
1555570917.26411,-48,22,-38
1555570917.29536,-48,22,-38
1555570917.32661,-49,22,-39
1555570917.35786,-48,22,-38
1555570917.38911,-48,21,-38
1555570917.42036,-48,22,-38
1555570917.45161,-48,22,-39
1555570917.48287,-48,22,-38
1555570917.51412,-48,22,-38
1555570917.54537,-48,22,-39
1555570917.57662,-48,22,-39
1555570917.60787,-48,22,-39
1555570917.63912,-48,22,-39
1555570917.67037,-48,22,-39
1555570917.70163,-48,22,-39
1555570917.73288,-48,22,-39
1555570917.76413,-48,22,-39
1555570917.79538,-48,22,-39
1555570917.82663,-48,22,-39
1555570917.85788,-48,22,-39
1555570917.88913,-48,22,-39
1555570917.92039,-48,22,-39
1555570917.95164,-48,22,-39
1555570917.98289,-48,22,-39
1555570918.01414,-48,22,-39
1555570918.04539,-48,22,-39
1555570918.07664,-48,22,-39
1555570918.10789,-48,22,-39
1555570918.13915,-48,22,-39
1555570918.1704,-48,22,-38
1555570918.20165,-48,22,-38
1555570918.2329,-48,22,-39
1555570918.26415,-48,22,-39
1555570918.2954,-48,22,-39
1555570918.32665,-48,22,-38
1555570918.35791,-48,22,-39
1555570918.38916,-49,22,-39
1555570918.42041,-49,22,-38
1555570918.45166,-48,22,-38
1555570918.48291,-49,22,-38
1555570918.51416,-49,22,-39
1555570918.54541,-49,21,-38
1555570918.57667,-49,21,-38
1555570918.60792,-49,22,-38
1555570918.63917,-49,22,-38
1555570918.67042,-48,22,-38
1555570918.70167,-48,22,-38
1555570918.73292,-49,22,-38
1555570918.76418,-49,22,-38
1555570918.79543,-48,22,-38
1555570918.82668,-49,22,-38
1555570918.85793,-49,22,-38
1555570918.88918,-49,22,-38
1555570918.92043,-49,22,-38
1555570918.95168,-48,22,-38
1555570918.98294,-49,22,-38
1555570919.01419,-48,22,-38
1555570919.04544,-48,22,-38
1555570919.07669,-48,22,-38
1555570919.10794,-48,22,-38
1555570919.13919,-48,22,-39
1555570919.17044,-48,22,-38
1555570919.2017,-48,22,-38
1555570919.23295,-48,22,-38
1555570919.2642,-48,22,-39
1555570919.29545,-48,22,-38
1555570919.3267,-49,22,-39
1555570919.35795,-48,22,-39
1555570919.3892,-48,21,-39
1555570919.42046,-48,22,-39
1555570919.45171,-48,22,-39
1555570919.48296,-48,22,-38
1555570919.51421,-48,22,-39
1555570919.54546,-48,22,-39
1555570919.57671,-48,22,-39
1555570919.60796,-48,22,-39
1555570919.63922,-48,22,-39
1555570919.67047,-48,21,-39
1555570919.70172,-48,21,-39
1555570919.73297,-48,22,-39
1555570919.76422,-48,22,-39
1555570919.79547,-48,22,-39
1555570919.82672,-48,21,-39
1555570919.85798,-48,22,-39
1555570919.88923,-48,21,-39
1555570919.92048,-49,21,-39
1555570919.95173,-49,21,-39
1555570919.98298,-48,21,-39
1555570920.01423,-48,21,-39
1555570920.04548,-48,21,-39
1555570920.07674,-48,22,-39
1555570920.10799,-48,22,-39
1555570920.13924,-48,22,-39
1555570920.17049,-48,21,-39
1555570920.20174,-48,21,-39
1555570920.23299,-48,21,-38
1555570920.26424,-48,21,-39
1555570920.2955,-49,22,-39
1555570920.32675,-48,22,-39
1555570920.358,-48,22,-40
1555570920.38925,-48,23,-40
1555570920.4205,-48,22,-39
1555570920.45175,-48,22,-39
1555570920.483,-48,21,-38
1555570920.51426,-48,21,-38
1555570920.54551,-48,22,-39
1555570920.57676,-48,21,-38
1555570920.60801,-48,21,-39
1555570920.63926,-48,21,-39
1555570920.67051,-48,22,-39
1555570920.70176,-48,22,-39
1555570920.73302,-48,22,-38
1555570920.76427,-48,22,-39
1555570920.79552,-48,22,-39
1555570920.82677,-48,22,-39
1555570920.85802,-48,22,-39
1555570920.88927,-48,22,-39
1555570920.92053,-48,22,-39
1555570920.95178,-48,22,-39
1555570920.98303,-48,22,-39
1555570921.01428,-48,22,-39
1555570921.04553,-48,22,-39
1555570921.07678,-48,23,-39
1555570921.10803,-48,23,-39
1555570921.13929,-48,22,-39
1555570921.17054,-48,22,-39
1555570921.20179,-48,22,-39
1555570921.23304,-48,22,-39
1555570921.26429,-48,22,-39
1555570921.29554,-48,22,-39
1555570921.32679,-48,22,-39
1555570921.35805,-48,22,-39
1555570921.3893,-48,22,-39
1555570921.42055,-48,22,-39
1555570921.4518,-48,22,-39
1555570921.48305,-48,22,-39
1555570921.5143,-48,22,-39
1555570921.54555,-48,22,-39
1555570921.57681,-48,22,-39
1555570921.60806,-48,22,-39
1555570921.63931,-48,22,-40
1555570921.67056,-48,22,-39
1555570921.70181,-48,22,-40
1555570921.73306,-48,22,-39
1555570921.76431,-48,22,-39
1555570921.79557,-47,22,-39
1555570921.82682,-48,22,-39
1555570921.85807,-48,22,-39
1555570921.88932,-48,22,-39
1555570921.92057,-48,22,-39
1555570921.95182,-48,22,-39
1555570921.98307,-48,22,-39
1555570922.01433,-48,22,-40
1555570922.04558,-48,22,-39
1555570922.07683,-48,22,-39
1555570922.10808,-48,22,-39
1555570922.13933,-48,22,-39
1555570922.17058,-48,22,-39
1555570922.20183,-48,22,-39
1555570922.23309,-48,22,-39
1555570922.26434,-48,22,-39
1555570922.29559,-48,22,-39
1555570922.32684,-48,22,-39
1555570922.35809,-48,22,-39
1555570922.38934,-48,22,-39
1555570922.42059,-48,22,-39
1555570922.45185,-48,22,-39
1555570922.4831,-48,22,-40
1555570922.51435,-48,21,-39
1555570922.5456,-48,21,-39
1555570922.57685,-48,22,-39
1555570922.6081,-48,22,-39
1555570922.63935,-48,22,-39
1555570922.67061,-48,22,-39
1555570922.70186,-48,22,-40
1555570922.73311,-48,22,-39
1555570922.76436,-48,22,-39
1555570922.79561,-48,22,-39
1555570922.82686,-48,22,-39
1555570922.85811,-48,22,-39
1555570922.88937,-48,22,-39
1555570922.92062,-48,22,-39
1555570922.95187,-48,22,-39
1555570922.98312,-48,22,-39
1555570923.01437,-48,22,-39
1555570923.04562,-48,22,-40
1555570923.07687,-48,22,-39
1555570923.10813,-48,22,-39
1555570923.13938,-48,22,-39
1555570923.17063,-48,22,-39
1555570923.20188,-48,22,-40
1555570923.23313,-48,22,-39
1555570923.26438,-48,22,-39
1555570923.29563,-48,22,-40
1555570923.32689,-48,22,-40
1555570923.35814,-48,22,-39
1555570923.38939,-48,22,-39
1555570923.42064,-48,22,-39
1555570923.45189,-48,22,-39
1555570923.48314,-48,22,-39
1555570923.5144,-48,22,-39
1555570923.54565,-48,22,-39
1555570923.5769,-48,22,-39
1555570923.60815,-48,22,-39
1555570923.6394,-48,22,-39
1555570923.67065,-48,22,-39
1555570923.7019,-48,22,-39
1555570923.73316,-48,22,-39
1555570923.76441,-48,22,-40
1555570923.79566,-48,22,-40
1555570923.82691,-48,22,-39
1555570923.85816,-48,22,-39
1555570923.88941,-48,22,-39
1555570923.92066,-48,22,-39
1555570923.95192,-48,22,-39
1555570923.98317,-48,22,-39
1555570924.01442,-48,22,-39
1555570924.04567,-48,22,-39
1555570924.07692,-48,22,-39
1555570924.10817,-48,22,-39
1555570924.13942,-48,22,-39
1555570924.17068,-48,22,-39
1555570924.20193,-48,22,-39
1555570924.23318,-48,22,-39
1555570924.26443,-48,22,-39
1555570924.29568,-48,22,-40
1555570924.32693,-48,21,-39
1555570924.35818,-48,22,-39
1555570924.38944,-48,22,-39
1555570924.42069,-48,21,-39
1555570924.45194,-48,22,-39
1555570924.48319,-48,22,-39
1555570924.51444,-48,22,-39
1555570924.54569,-48,22,-39
1555570924.57694,-48,22,-40
1555570924.6082,-48,22,-39
1555570924.63945,-48,22,-39
1555570924.6707,-48,22,-39
1555570924.70195,-48,22,-39
1555570924.7332,-48,22,-39
1555570924.76445,-48,22,-39
1555570924.7957,-48,22,-39
1555570924.82696,-48,22,-39
1555570924.85821,-48,22,-39
1555570924.88946,-48,22,-39
1555570924.92071,-48,22,-39
1555570924.95196,-48,22,-39
1555570924.98321,-48,22,-40
1555570925.01446,-48,22,-39
1555570925.04572,-48,22,-39
1555570925.07697,-48,22,-39
1555570925.10822,-48,22,-39
1555570925.13947,-48,22,-39
1555570925.17072,-48,22,-39
1555570925.20197,-48,22,-39
1555570925.23322,-48,22,-39
1555570925.26448,-48,22,-39
1555570925.29573,-48,22,-39
1555570925.32698,-48,22,-39
1555570925.35823,-48,22,-39
1555570925.38948,-48,22,-39
1555570925.42073,-48,22,-39
1555570925.45198,-48,22,-39
1555570925.48324,-48,22,-39
1555570925.51449,-48,22,-39
1555570925.54574,-48,22,-39
1555570925.57699,-48,22,-39
1555570925.60824,-48,22,-39
1555570925.63949,-48,22,-39
1555570925.67074,-48,22,-39
1555570925.702,-48,22,-39
1555570925.73325,-48,22,-39
1555570925.7645,-48,22,-39
1555570925.79575,-48,22,-39
1555570925.827,-48,22,-39
1555570925.85825,-48,22,-39
1555570925.8895,-48,22,-39
1555570925.92076,-48,22,-39
1555570925.95201,-48,22,-39
1555570925.98326,-48,22,-39
1555570926.01451,-48,22,-39
1555570926.04576,-48,22,-39
1555570926.07701,-48,22,-39
1555570926.10827,-48,22,-39
1555570926.13952,-48,22,-39
1555570926.17077,-48,22,-39
1555570926.20202,-48,22,-39
1555570926.23327,-48,22,-39
1555570926.26452,-48,22,-39
1555570926.29577,-48,22,-39
1555570926.32703,-48,22,-39
1555570926.35828,-48,22,-39
1555570926.38953,-48,22,-39
1555570926.42078,-48,22,-39
1555570926.45203,-48,22,-39
1555570926.48328,-48,22,-39
1555570926.51453,-48,22,-39
1555570926.54579,-48,22,-39
1555570926.57704,-48,22,-39
1555570926.60829,-48,22,-39
1555570926.63954,-48,22,-39
1555570926.67079,-48,22,-39
1555570926.70204,-48,22,-39
1555570926.73329,-48,22,-39
1555570926.76455,-48,22,-39
1555570926.7958,-48,22,-39
1555570926.82705,-48,22,-39
1555570926.8583,-48,22,-39
1555570926.88955,-48,22,-39
1555570926.9208,-48,22,-39
1555570926.95205,-48,22,-39
1555570926.98331,-48,22,-39
1555570927.01456,-48,22,-39
1555570927.04581,-48,22,-39
1555570927.07706,-48,22,-39
1555570927.10831,-48,22,-39
1555570927.13956,-48,22,-39
1555570927.17081,-48,22,-39
1555570927.20207,-48,22,-39
1555570927.23332,-48,22,-39
1555570927.26457,-48,22,-39
1555570927.29582,-48,22,-39
1555570927.32707,-48,22,-39
1555570927.35832,-48,22,-40
1555570927.38957,-48,22,-39
1555570927.42083,-48,22,-39
1555570927.45208,-48,22,-39
1555570927.48333,-48,22,-39
1555570927.51458,-48,22,-39
1555570927.54583,-48,22,-39
1555570927.57708,-48,22,-39
1555570927.60833,-48,22,-39
1555570927.63959,-48,22,-39
1555570927.67084,-48,22,-39
1555570927.70209,-48,22,-39
1555570927.73334,-48,22,-39
1555570927.76459,-48,22,-39
1555570927.79584,-48,22,-39
1555570927.82709,-48,22,-39
1555570927.85835,-48,22,-39
1555570927.8896,-48,22,-39
1555570927.92085,-48,22,-39
1555570927.9521,-48,22,-39
1555570927.98335,-48,22,-39
1555570928.0146,-48,22,-39
1555570928.04585,-48,22,-39
1555570928.07711,-48,22,-39
1555570928.10836,-48,22,-39
1555570928.13961,-48,22,-39
1555570928.17086,-48,22,-39
1555570928.20211,-48,22,-39
1555570928.23336,-48,22,-39
1555570928.26462,-48,22,-39
1555570928.29587,-48,22,-39
1555570928.32712,-48,22,-39
1555570928.35837,-48,22,-39
1555570928.38962,-48,22,-39
1555570928.42087,-48,22,-39
1555570928.45212,-48,22,-39
1555570928.48338,-48,23,-39
1555570928.51463,-48,23,-39
1555570928.54588,-48,23,-39
1555570928.57713,-48,23,-39
1555570928.60838,-48,23,-39
1555570928.63963,-48,23,-39
1555570928.67088,-48,23,-39
1555570928.70214,-48,23,-39
1555570928.73339,-48,22,-39
1555570928.76464,-48,22,-39
1555570928.79589,-48,23,-39
1555570928.82714,-48,22,-39
1555570928.85839,-48,23,-39
1555570928.88964,-48,23,-39
1555570928.9209,-48,22,-39
1555570928.95215,-48,22,-39
1555570928.9834,-48,23,-39
1555570929.01465,-48,22,-39
1555570929.0459,-48,22,-39
1555570929.07715,-48,22,-38
1555570929.1084,-48,22,-39
1555570929.13966,-48,22,-39
1555570929.17091,-48,22,-39
1555570929.20216,-48,22,-38
1555570929.23341,-48,22,-39
1555570929.26466,-48,22,-39
1555570929.29591,-48,22,-39
1555570929.32716,-48,22,-39
1555570929.35842,-48,22,-39
1555570929.38967,-48,22,-38
1555570929.42092,-48,22,-39
1555570929.45217,-48,22,-39
1555570929.48342,-48,22,-39
1555570929.51467,-48,22,-39
1555570929.54592,-48,22,-39
1555570929.57718,-48,22,-39
1555570929.60843,-48,22,-39
1555570929.63968,-48,22,-39
1555570929.67093,-48,22,-39
1555570929.70218,-48,22,-39
1555570929.73343,-48,22,-39
1555570929.76468,-48,22,-39
1555570929.79594,-48,22,-39
1555570929.82719,-48,22,-39
1555570929.85844,-48,22,-39
1555570929.88969,-48,22,-39
1555570929.92094,-48,22,-39
1555570929.95219,-48,22,-39
1555570929.98344,-48,22,-39
1555570930.0147,-48,22,-39
1555570930.04595,-48,22,-39
1555570930.0772,-48,22,-39
1555570930.10845,-48,22,-39
1555570930.1397,-48,22,-39
1555570930.17095,-48,22,-39
1555570930.2022,-48,22,-39
1555570930.23346,-48,22,-39
1555570930.26471,-48,22,-39
1555570930.29596,-48,22,-39
1555570930.32721,-48,22,-39
1555570930.35846,-48,22,-39
1555570930.38971,-48,22,-39
1555570930.42096,-48,22,-39
1555570930.45222,-48,22,-39
1555570930.48347,-48,22,-39
1555570930.51472,-48,22,-39
1555570930.54597,-48,22,-39
1555570930.57722,-48,22,-39
1555570930.60847,-48,22,-39
1555570930.63972,-48,22,-39
1555570930.67098,-48,22,-39
1555570930.70223,-48,22,-39
1555570930.73348,-48,22,-39
1555570930.76473,-48,22,-39
1555570930.79598,-48,22,-39
1555570930.82723,-48,22,-39
1555570930.85848,-48,22,-39
1555570930.88974,-48,22,-39
1555570930.92099,-48,22,-39
1555570930.95224,-48,22,-39
1555570930.98349,-48,22,-39
1555570931.01474,-48,22,-39
1555570931.04599,-48,22,-39
1555570931.07725,-48,22,-39
1555570931.1085,-48,22,-39
1555570931.13975,-48,22,-39
1555570931.171,-48,22,-39
1555570931.20225,-48,22,-39
1555570931.2335,-48,22,-39
1555570931.26475,-48,22,-39
1555570931.29601,-48,22,-39
1555570931.32726,-48,22,-39
1555570931.35851,-48,22,-39
1555570931.38976,-48,22,-38
1555570931.42101,-48,22,-39
1555570931.45226,-48,22,-39
1555570931.48351,-48,22,-39
1555570931.51477,-48,22,-39
1555570931.54602,-48,22,-39
1555570931.57727,-48,22,-39
1555570931.60852,-48,23,-39
1555570931.63977,-48,22,-39
1555570931.67102,-48,22,-39
1555570931.70227,-48,22,-39
1555570931.73353,-48,22,-39
1555570931.76478,-48,22,-39
1555570931.79603,-48,22,-39
1555570931.82728,-48,22,-39
1555570931.85853,-48,22,-39
1555570931.88978,-48,22,-39
1555570931.92103,-48,22,-39
1555570931.95229,-48,22,-39
1555570931.98354,-48,22,-39
1555570932.01479,-48,22,-39
1555570932.04604,-48,22,-39
1555570932.07729,-48,22,-40
1555570932.10854,-48,22,-39
1555570932.13979,-48,22,-39
1555570932.17105,-48,22,-39
1555570932.2023,-48,22,-39
1555570932.23355,-48,22,-40
1555570932.2648,-48,22,-40
1555570932.29605,-48,22,-39
1555570932.3273,-48,22,-39
1555570932.35855,-47,22,-39
1555570932.38981,-48,22,-39
1555570932.42106,-48,22,-39
1555570932.45231,-48,22,-39
1555570932.48356,-48,22,-39
1555570932.51481,-48,22,-39
1555570932.54606,-48,22,-40
1555570932.57731,-48,22,-39
1555570932.60857,-48,22,-39
1555570932.63982,-48,22,-39
1555570932.67107,-48,22,-39
1555570932.70232,-48,22,-39
1555570932.73357,-48,22,-39
1555570932.76482,-48,22,-39
1555570932.79607,-48,22,-39
1555570932.82733,-48,22,-39
1555570932.85858,-48,22,-39
1555570932.88983,-48,22,-39
1555570932.92108,-48,22,-39
1555570932.95233,-48,22,-39
1555570932.98358,-48,22,-39
1555570933.01483,-48,22,-39
1555570933.04609,-48,23,-39
1555570933.07734,-48,23,-39
1555570933.10859,-48,22,-39
1555570933.13984,-48,22,-39
1555570933.17109,-48,22,-39
1555570933.20234,-48,22,-39
1555570933.2336,-48,22,-39
1555570933.26485,-48,22,-39
1555570933.2961,-48,22,-40
1555570933.32735,-48,22,-39
1555570933.3586,-48,22,-39
1555570933.38985,-48,22,-39
1555570933.4211,-48,21,-39
1555570933.45236,-48,22,-39
1555570933.48361,-48,22,-39
1555570933.51486,-48,22,-39
1555570933.54611,-48,22,-39
1555570933.57736,-48,22,-39
1555570933.60861,-48,22,-39
1555570933.63986,-48,22,-40
1555570933.67112,-48,22,-39
1555570933.70237,-48,22,-40
1555570933.73362,-48,22,-40
1555570933.76487,-48,22,-39
1555570933.79612,-48,22,-40
1555570933.82737,-48,22,-39
1555570933.85862,-48,22,-39
1555570933.88988,-48,22,-39
1555570933.92113,-48,22,-39
1555570933.95238,-48,22,-39
1555570933.98363,-48,22,-40
1555570934.01488,-48,22,-39
1555570934.04613,-48,22,-39
1555570934.07738,-48,22,-39
1555570934.10864,-48,22,-39
1555570934.13989,-48,22,-39
1555570934.17114,-48,22,-39
1555570934.20239,-48,22,-39
1555570934.23364,-48,22,-39
1555570934.26489,-48,22,-39
1555570934.29614,-48,22,-39
1555570934.3274,-48,22,-39
1555570934.35865,-48,22,-39
1555570934.3899,-48,22,-39
1555570934.42115,-48,22,-39
1555570934.4524,-48,22,-39
1555570934.48365,-48,22,-39
1555570934.5149,-48,22,-39
1555570934.54616,-48,22,-39
1555570934.57741,-48,22,-39
1555570934.60866,-48,22,-39
1555570934.63991,-48,22,-39
1555570934.67116,-48,22,-39
1555570934.70241,-48,22,-39
1555570934.73366,-48,22,-39
1555570934.76492,-48,22,-39
1555570934.79617,-48,22,-39
1555570934.82742,-48,22,-39
1555570934.85867,-48,22,-39
1555570934.88992,-48,23,-39
1555570934.92117,-48,22,-39
1555570934.95242,-48,22,-39
1555570934.98368,-48,22,-39
1555570935.01493,-48,22,-39
1555570935.04618,-48,22,-39
1555570935.07743,-48,22,-39
1555570935.10868,-48,22,-39
1555570935.13993,-48,22,-39
1555570935.17118,-48,22,-39
1555570935.20244,-48,22,-39
1555570935.23369,-48,23,-39
1555570935.26494,-48,23,-39
1555570935.29619,-48,22,-39
1555570935.32744,-48,23,-39
1555570935.35869,-48,22,-39
1555570935.38994,-48,22,-39
1555570935.4212,-48,22,-39
1555570935.45245,-48,22,-39
1555570935.4837,-48,22,-39
1555570935.51495,-48,22,-39
1555570935.5462,-48,22,-39
1555570935.57745,-48,22,-39
1555570935.60871,-48,22,-39
1555570935.63996,-48,22,-39
1555570935.67121,-48,22,-39
1555570935.70246,-48,22,-39
1555570935.73371,-48,22,-39
1555570935.76496,-48,22,-39
1555570935.79621,-48,22,-39
1555570935.82747,-48,22,-39
1555570935.85872,-48,22,-39
1555570935.88997,-48,22,-39
1555570935.92122,-48,22,-39
1555570935.95247,-48,22,-39
1555570935.98372,-48,22,-39
1555570936.01497,-48,22,-39
1555570936.04623,-48,22,-39
1555570936.07748,-48,22,-39
1555570936.10873,-48,22,-39
1555570936.13998,-48,22,-39
1555570936.17123,-48,22,-39
1555570936.20248,-48,22,-39
1555570936.23373,-48,22,-39
1555570936.26499,-48,22,-38
1555570936.29624,-48,22,-39
1555570936.32749,-48,22,-39
1555570936.35874,-48,22,-39
1555570936.38999,-48,22,-39
1555570936.42124,-48,22,-39
1555570936.45249,-48,22,-39
1555570936.48375,-48,22,-39
1555570936.515,-48,22,-39
1555570936.54625,-48,22,-39
1555570936.5775,-48,22,-39
1555570936.60875,-48,22,-39
1555570936.64,-48,22,-39
1555570936.67125,-48,22,-39
1555570936.70251,-48,22,-39
1555570936.73376,-48,22,-39
1555570936.76501,-48,22,-39
1555570936.79626,-48,22,-39
1555570936.82751,-48,22,-39
1555570936.85876,-48,22,-39
1555570936.89001,-48,22,-39
1555570936.92127,-48,22,-39
1555570936.95252,-48,22,-39
1555570936.98377,-48,22,-39
1555570937.01502,-48,22,-40
1555570937.04627,-48,22,-39
1555570937.07752,-48,22,-39
1555570937.10877,-48,22,-39
1555570937.14003,-48,22,-39
1555570937.17128,-48,22,-39
1555570937.20253,-48,22,-39
1555570937.23378,-48,22,-39
1555570937.26503,-48,22,-39
1555570937.29628,-48,22,-39
1555570937.32753,-48,22,-39
1555570937.35879,-48,21,-39
1555570937.39004,-48,22,-39
1555570937.42129,-48,21,-39
1555570937.45254,-48,22,-39
1555570937.48379,-48,22,-39
1555570937.51504,-48,22,-39
1555570937.54629,-48,21,-39
1555570937.57755,-48,22,-39
1555570937.6088,-48,21,-39
1555570937.64005,-48,22,-39
1555570937.6713,-48,22,-39
1555570937.70255,-48,21,-39
1555570937.7338,-48,22,-39
1555570937.76505,-49,21,-39
1555570937.79631,-48,21,-39
1555570937.82756,-48,21,-39
1555570937.85881,-48,21,-39
1555570937.89006,-48,22,-39
1555570937.92131,-48,21,-39
1555570937.95256,-48,21,-38
1555570937.98381,-48,21,-38
1555570938.01507,-48,22,-39
1555570938.04632,-48,22,-39
1555570938.07757,-48,22,-40
1555570938.10882,-48,22,-39
1555570938.14007,-48,22,-39
1555570938.17132,-48,22,-39
1555570938.20257,-48,21,-39
1555570938.23383,-48,22,-39
1555570938.26508,-48,22,-39
1555570938.29633,-48,22,-39
1555570938.32758,-48,22,-39
1555570938.35883,-48,22,-39
1555570938.39008,-48,21,-39
1555570938.42134,-48,22,-39
1555570938.45259,-48,21,-39
1555570938.48384,-48,22,-39
1555570938.51509,-48,21,-39
1555570938.54634,-48,21,-39
1555570938.57759,-48,21,-39
1555570938.60884,-48,21,-39
1555570938.6401,-48,21,-39
1555570938.67135,-48,21,-39
1555570938.7026,-48,21,-39
1555570938.73385,-48,21,-39
1555570938.7651,-48,21,-39
1555570938.79635,-48,21,-40
1555570938.8276,-48,21,-39
1555570938.85886,-48,21,-39
1555570938.89011,-48,21,-39
1555570938.92136,-48,21,-39
1555570938.95261,-48,21,-39
1555570938.98386,-48,21,-39
1555570939.01511,-48,21,-39
1555570939.04636,-48,21,-39
1555570939.07762,-48,21,-39
1555570939.10887,-48,21,-39
1555570939.14012,-48,21,-39
1555570939.17137,-48,21,-39
1555570939.20262,-48,21,-40
1555570939.23387,-48,21,-39
1555570939.26512,-48,21,-39
1555570939.29638,-48,21,-39
1555570939.32763,-48,22,-39
1555570939.35888,-48,22,-39
1555570939.39013,-48,22,-39
1555570939.42138,-48,22,-39
1555570939.45263,-48,22,-39
1555570939.48388,-48,21,-39
1555570939.51514,-49,21,-39
1555570939.54639,-48,21,-39
1555570939.57764,-49,21,-39
1555570939.60889,-48,21,-39
1555570939.64014,-48,21,-39
1555570939.67139,-48,21,-39
1555570939.70264,-48,21,-39
1555570939.7339,-48,21,-39
1555570939.76515,-48,21,-39
1555570939.7964,-48,21,-39
1555570939.82765,-48,21,-39
1555570939.8589,-48,21,-39
1555570939.89015,-48,21,-39
1555570939.9214,-48,21,-39
1555570939.95266,-48,21,-39
1555570939.98391,-48,21,-39
1555570940.01516,-48,21,-39
1555570940.04641,-48,21,-39
1555570940.07766,-48,21,-39
1555570940.10891,-48,21,-39
1555570940.14016,-48,21,-39
1555570940.17142,-48,21,-39
1555570940.20267,-48,21,-39
1555570940.23392,-48,21,-39
1555570940.26517,-48,21,-39
1555570940.29642,-48,21,-39
1555570940.32767,-48,21,-39
1555570940.35892,-48,21,-39
1555570940.39018,-48,22,-39
1555570940.42143,-48,22,-39
1555570940.45268,-48,21,-39
1555570940.48393,-48,22,-39
1555570940.51518,-48,22,-39
1555570940.54643,-48,22,-39
1555570940.57769,-48,22,-39
1555570940.60894,-48,22,-39
1555570940.64019,-48,22,-39
1555570940.67144,-48,22,-39
1555570940.70269,-48,22,-39
1555570940.73394,-48,22,-39
1555570940.76519,-48,22,-39
1555570940.79645,-48,22,-39
1555570940.8277,-48,22,-39
1555570940.85895,-48,22,-39
1555570940.8902,-48,22,-40
1555570940.92145,-48,22,-39
1555570940.9527,-48,22,-39
1555570940.98395,-48,22,-38
1555570941.01521,-48,22,-39
1555570941.04646,-48,22,-39
1555570941.07771,-48,22,-39
1555570941.10896,-48,22,-39
1555570941.14021,-48,22,-39
1555570941.17146,-48,21,-39
1555570941.20271,-48,22,-39
1555570941.23397,-48,22,-39
1555570941.26522,-48,22,-39
1555570941.29647,-48,22,-39
1555570941.32772,-48,22,-39
1555570941.35897,-48,22,-39
1555570941.39022,-48,22,-39
1555570941.42147,-48,22,-39
1555570941.45273,-48,22,-39
1555570941.48398,-48,21,-39
1555570941.51523,-48,22,-39
1555570941.54648,-48,23,-39
1555570941.57773,-49,23,-39
1555570941.60898,-49,21,-38
1555570941.64023,-50,22,-38
1555570941.67149,-51,23,-39
1555570941.70274,-50,24,-37
1555570941.73399,-48,26,-35
1555570941.76524,-49,26,-35
1555570941.79649,-48,25,-35
1555570941.82774,-48,26,-34
1555570941.85899,-49,26,-34
1555570941.89025,-50,26,-33
1555570941.9215,-51,25,-33
1555570941.95275,-50,26,-33
1555570941.984,-52,26,-34
1555570942.01525,-52,27,-33
1555570942.0465,-50,27,-32
1555570942.07775,-51,28,-32
1555570942.10901,-50,29,-31
1555570942.14026,-50,28,-31
1555570942.17151,-50,28,-31
1555570942.20276,-51,27,-31
1555570942.23401,-51,24,-32
1555570942.26526,-51,24,-31
1555570942.29651,-51,27,-31
1555570942.32777,-49,29,-31
1555570942.35902,-48,29,-30
1555570942.39027,-46,28,-29
1555570942.42152,-50,30,-28
1555570942.45277,-46,27,-31
1555570942.48402,-63,27,-31
1555570942.51527,-57,29,-28
1555570942.54653,-46,34,-28
1555570942.57778,-48,36,-29
1555570942.60903,-48,35,-31
1555570942.64028,-49,32,-32
1555570942.67153,-54,30,-31
1555570942.70278,-50,25,-29
1555570942.73403,-50,24,-28
1555570942.76529,-49,24,-30
1555570942.79654,-48,26,-32
1555570942.82779,-48,29,-38
1555570942.85904,-46,29,-39
1555570942.89029,-45,30,-40
1555570942.92154,-45,29,-40
1555570942.9528,-44,27,-40
1555570942.98405,-45,26,-46
1555570943.0153,-43,23,-45
1555570943.04655,-42,24,-42
1555570943.0778,-44,24,-44
1555570943.10905,-42,23,-40
1555570943.1403,-41,22,-42
1555570943.17156,-45,21,-48
1555570943.20281,-43,21,-45
1555570943.23406,-44,16,-48
1555570943.26531,-44,14,-44
1555570943.29656,-44,11,-48
1555570943.32781,-45,13,-44
1555570943.35906,-47,14,-42
1555570943.39032,-46,13,-44
1555570943.42157,-41,14,-47
1555570943.45282,-43,14,-46
1555570943.48407,-47,12,-58
1555570943.51532,-47,11,-44
1555570943.54657,-46,12,-37
1555570943.57782,-51,12,-40
1555570943.60908,-50,15,-40
1555570943.64033,-45,22,-43
1555570943.67158,-44,24,-44
1555570943.70283,-40,21,-50
1555570943.73408,-42,22,-49
1555570943.76533,-43,18,-47
1555570943.79658,-42,14,-51
1555570943.82784,-47,20,-51
1555570943.85909,-48,21,-49
1555570943.89034,-49,24,-49
1555570943.92159,-50,28,-47
1555570943.95284,-49,21,-45
1555570943.98409,-48,17,-46
1555570944.01534,-46,16,-47
1555570944.0466,-42,7,-46
1555570944.07785,-44,9,-44
1555570944.1091,-47,11,-39
1555570944.14035,-44,9,-41
1555570944.1716,-40,10,-42
1555570944.20285,-43,9,-39
1555570944.2341,-42,4,-42
1555570944.26536,-40,5,-43
1555570944.29661,-42,1,-42
1555570944.32786,-42,2,-48
1555570944.35911,-42,2,-48
1555570944.39036,-42,0,-48
1555570944.42161,-41,3,-50
1555570944.45286,-40,4,-48
1555570944.48412,-39,3,-48
1555570944.51537,-39,6,-50
1555570944.54662,-41,7,-50
1555570944.57787,-40,9,-50
1555570944.60912,-40,10,-49
1555570944.64037,-42,12,-48
1555570944.67162,-42,12,-48
1555570944.70288,-41,11,-49
1555570944.73413,-41,11,-48
1555570944.76538,-41,12,-49
1555570944.79663,-42,16,-50
1555570944.82788,-42,16,-50
1555570944.85913,-44,16,-50
1555570944.89038,-44,17,-50
1555570944.92164,-45,15,-52
1555570944.95289,-46,15,-52
1555570944.98414,-48,17,-52
1555570945.01539,-49,17,-51
1555570945.04664,-50,16,-50
1555570945.07789,-50,16,-49
1555570945.10914,-49,14,-47
1555570945.1404,-50,14,-45
1555570945.17165,-51,15,-42
1555570945.2029,-49,15,-40
1555570945.23415,-50,18,-40
1555570945.2654,-51,18,-39
1555570945.29665,-53,17,-40
1555570945.3279,-55,18,-37
1555570945.35916,-55,15,-35
1555570945.39041,-56,11,-32
1555570945.42166,-57,12,-30
1555570945.45291,-56,7,-27
1555570945.48416,-55,6,-26
1555570945.51541,-56,5,-24
1555570945.54666,-54,0,-24
1555570945.57792,-52,-1,-27
1555570945.60917,-53,-2,-27
1555570945.64042,-55,-5,-33
1555570945.67167,-57,-2,-34
1555570945.70292,-56,-5,-36
1555570945.73417,-56,-6,-38
1555570945.76543,-58,-6,-36
1555570945.79668,-58,-7,-37
1555570945.82793,-62,-7,-42
1555570945.85918,-66,-7,-40
1555570945.89043,-64,-7,-37
1555570945.92168,-61,-9,-37
1555570945.95293,-58,-12,-35
1555570945.98419,-51,-11,-35
1555570946.01544,-47,-11,-37
1555570946.04669,-44,-10,-37
1555570946.07794,-44,-8,-38
1555570946.10919,-43,-7,-36
1555570946.14044,-40,-6,-31
1555570946.17169,-41,-5,-28
1555570946.20295,-37,-7,-30
1555570946.2342,-36,-5,-33
1555570946.26545,-36,-14,-32
1555570946.2967,-35,-14,-33
1555570946.32795,-32,-22,-38
1555570946.3592,-34,-25,-35
1555570946.39045,-42,-24,-32
1555570946.42171,-42,-20,-38
1555570946.45296,-61,-18,-29
1555570946.48421,-68,-18,-29
1555570946.51546,-61,-15,-38
1555570946.54671,-66,-12,-30
1555570946.57796,-64,-8,-22
1555570946.60921,-67,-1,-35
1555570946.64047,-66,0,-38
1555570946.67172,-67,11,-10
1555570946.70297,-83,15,-10
1555570946.73422,-98,8,-2
1555570946.76547,-94,2,4
1555570946.79672,-88,7,10
1555570946.82797,-94,10,11
1555570946.85923,-76,7,-1
1555570946.89048,-75,6,-5
1555570946.92173,-73,4,-5
1555570946.95298,-58,4,-18
1555570946.98423,-54,1,-19
1555570947.01548,-61,-6,-38
1555570947.04673,-58,-11,-39
1555570947.07799,-56,-10,-30
1555570947.10924,-53,-12,-21
1555570947.14049,-48,-3,10
1555570947.17174,-44,-5,20
1555570947.20299,-51,-1,26
1555570947.23424,-59,1,29
1555570947.26549,-41,-4,36
1555570947.29675,-45,-3,51
1555570947.328,-43,-4,55
1555570947.35925,-50,-8,47
1555570947.3905,-49,-6,50
1555570947.42175,-48,-3,56
1555570947.453,-48,-4,51
1555570947.48425,-39,2,45
1555570947.51551,-43,3,45
1555570947.54676,-45,-4,42
1555570947.57801,-46,-5,44
1555570947.60926,-54,-3,43
1555570947.64051,-52,-2,40
1555570947.67176,-50,-4,46
1555570947.70301,-50,-6,45
1555570947.73427,-53,-5,40
1555570947.76552,-48,-6,46
1555570947.79677,-50,-9,42
1555570947.82802,-50,-12,34
1555570947.85927,-48,-12,35
1555570947.89052,-48,-8,35
1555570947.92178,-47,-10,36
1555570947.95303,-41,-15,38
1555570947.98428,-41,-14,35
1555570948.01553,-41,-16,30
1555570948.04678,-47,-14,26
1555570948.07803,-63,-3,22
1555570948.10928,-61,-7,29
1555570948.14054,-51,-8,32
1555570948.17179,-51,-10,34
1555570948.20304,-54,-7,37
1555570948.23429,-56,-3,35
1555570948.26554,-49,-1,44
1555570948.29679,-52,4,57
1555570948.32804,-55,1,48
1555570948.3593,-45,-7,41
1555570948.39055,-38,-7,45
1555570948.4218,-39,-2,46
1555570948.45305,-42,-1,46
1555570948.4843,-56,4,47
1555570948.51555,-58,4,44
1555570948.5468,-58,-6,36
1555570948.57806,-63,-8,41
1555570948.60931,-63,-8,39
1555570948.64056,-62,-13,35
1555570948.67181,-61,-9,33
1555570948.70306,-59,-10,26
1555570948.73431,-55,-12,25
1555570948.76556,-52,-12,7
1555570948.79682,-55,-13,-7
1555570948.82807,-71,-19,-30
1555570948.85932,-64,-23,-27
1555570948.89057,-47,-21,-18
1555570948.92182,-36,-25,-19
1555570948.95307,-21,-18,-2
1555570948.98432,-43,3,17
1555570949.01558,-48,12,20
1555570949.04683,-59,10,27
1555570949.07808,-72,2,25
1555570949.10933,-74,-16,13
1555570949.14058,-74,-13,10
1555570949.17183,-105,5,6
1555570949.20308,-122,2,8
1555570949.23434,-63,7,20
1555570949.26559,-55,0,13
1555570949.29684,-60,9,15
1555570949.32809,-68,9,12
1555570949.35934,-67,10,13
1555570949.39059,-62,9,13
1555570949.42184,-64,8,12
1555570949.4531,-65,7,12
1555570949.48435,-65,7,13
1555570949.5156,-63,8,17
1555570949.54685,-62,7,19
1555570949.5781,-61,8,21
1555570949.60935,-61,8,20
1555570949.6406,-63,8,16
1555570949.67186,-64,8,15
1555570949.70311,-63,8,16
1555570949.73436,-63,7,17
1555570949.76561,-63,8,17
1555570949.79686,-63,8,18
1555570949.82811,-63,7,17
1555570949.85936,-63,7,17
1555570949.89062,-63,7,17
1555570949.92187,-63,8,17
1555570949.95312,-63,8,17
1555570949.98437,-63,8,18
1555570950.01562,-63,8,18
1555570950.04687,-63,8,17
1555570950.07812,-63,8,18
1555570950.10938,-63,8,18
1555570950.14063,-63,8,18
1555570950.17188,-63,8,18
1555570950.20313,-63,8,18
1555570950.23438,-62,8,18
1555570950.26563,-63,8,18
1555570950.29689,-62,8,17
1555570950.32814,-62,8,18
1555570950.35939,-63,8,17
1555570950.39064,-62,8,19
1555570950.42189,-62,8,18
1555570950.45314,-62,8,18
1555570950.48439,-63,8,18
1555570950.51565,-62,8,18
1555570950.5469,-62,8,18
1555570950.57815,-63,8,18
1555570950.6094,-62,8,18
1555570950.64065,-63,8,18
1555570950.6719,-62,8,18
1555570950.70315,-63,8,18
1555570950.73441,-62,8,18
1555570950.76566,-63,8,18
1555570950.79691,-62,8,18
1555570950.82816,-62,8,18
1555570950.85941,-62,8,18
1555570950.89066,-62,8,18
1555570950.92191,-63,9,19
1555570950.95317,-63,8,18
1555570950.98442,-62,8,19
1555570951.01567,-62,8,18
1555570951.04692,-63,8,18
1555570951.07817,-62,8,18
1555570951.10942,-62,8,19
1555570951.14067,-62,8,18
1555570951.17193,-63,8,18
1555570951.20318,-62,8,18
1555570951.23443,-62,8,18
1555570951.26568,-62,8,18
1555570951.29693,-62,8,19
1555570951.32818,-63,8,19
1555570951.35943,-62,8,18
1555570951.39069,-62,8,18
1555570951.42194,-62,8,18
1555570951.45319,-62,8,18
1555570951.48444,-62,8,18
1555570951.51569,-62,8,18
1555570951.54694,-62,8,18
1555570951.57819,-62,8,19
1555570951.60945,-63,8,18
1555570951.6407,-63,8,18
1555570951.67195,-62,8,18
1555570951.7032,-62,9,19
1555570951.73445,-63,8,18
1555570951.7657,-62,8,18
1555570951.79695,-62,8,19
1555570951.82821,-62,8,19
1555570951.85946,-63,8,18
1555570951.89071,-63,8,18
1555570951.92196,-62,8,18
1555570951.95321,-62,9,18
1555570951.98446,-62,8,18
1555570952.01571,-62,8,18
1555570952.04697,-62,8,18
1555570952.07822,-62,8,18
1555570952.10947,-63,8,18
1555570952.14072,-62,8,18
1555570952.17197,-62,8,18
1555570952.20322,-62,9,19
1555570952.23447,-62,9,18
1555570952.26573,-62,8,19
1555570952.29698,-62,8,19
1555570952.32823,-62,9,18
1555570952.35948,-62,8,18
1555570952.39073,-62,9,18
1555570952.42198,-63,9,18
1555570952.45323,-62,8,19
1555570952.48449,-62,9,18
1555570952.51574,-62,9,19
1555570952.54699,-62,9,18
1555570952.57824,-62,8,18
1555570952.60949,-62,8,18
1555570952.64074,-62,9,18
1555570952.67199,-62,9,18
1555570952.70325,-62,9,18
1555570952.7345,-62,8,19
1555570952.76575,-62,9,18
1555570952.797,-62,8,18
1555570952.82825,-62,8,19
1555570952.8595,-62,8,19
1555570952.89076,-62,9,18
1555570952.92201,-62,9,19
1555570952.95326,-63,9,18
1555570952.98451,-62,8,19
1555570953.01576,-62,8,19
1555570953.04701,-63,9,18
1555570953.07826,-62,8,18
1555570953.10952,-62,9,19
1555570953.14077,-62,8,18
1555570953.17202,-62,8,18
1555570953.20327,-62,8,19
1555570953.23452,-62,9,18
1555570953.26577,-62,8,18
1555570953.29702,-62,8,18
1555570953.32828,-62,8,18
1555570953.35953,-62,9,18
1555570953.39078,-62,9,18
1555570953.42203,-62,9,19
1555570953.45328,-62,8,18
1555570953.48453,-62,9,18
1555570953.51578,-62,8,19
1555570953.54704,-62,9,19
1555570953.57829,-62,9,18
1555570953.60954,-62,8,18
1555570953.64079,-62,9,18
1555570953.67204,-62,9,19
1555570953.70329,-62,8,18
1555570953.73454,-62,8,19
1555570953.7658,-63,9,19
1555570953.79705,-63,8,18
1555570953.8283,-62,9,19
1555570953.85955,-62,9,19
1555570953.8908,-63,8,18
1555570953.92205,-62,8,18
1555570953.9533,-62,9,19
1555570953.98456,-62,9,19
1555570954.01581,-62,8,18
1555570954.04706,-62,8,18
1555570954.07831,-62,9,19
1555570954.10956,-62,9,18
1555570954.14081,-62,9,18
1555570954.17206,-62,8,19
1555570954.20332,-62,9,18
1555570954.23457,-62,8,19
1555570954.26582,-62,8,18
1555570954.29707,-62,9,18
1555570954.32832,-62,9,19
1555570954.35957,-62,8,19
1555570954.39082,-62,9,19
1555570954.42208,-62,9,18
1555570954.45333,-62,9,19
1555570954.48458,-62,8,18
1555570954.51583,-62,8,19
1555570954.54708,-62,9,19
1555570954.57833,-63,9,18
1555570954.60958,-62,8,18
1555570954.64084,-62,9,19
1555570954.67209,-62,9,18
1555570954.70334,-62,8,18
1555570954.73459,-62,9,19
1555570954.76584,-62,9,19
1555570954.79709,-62,9,18
1555570954.82834,-62,9,18
1555570954.8596,-62,9,18
1555570954.89085,-62,9,18
1555570954.9221,-63,9,18
1555570954.95335,-62,9,19
1555570954.9846,-62,9,18
1555570955.01585,-62,9,19
1555570955.0471,-62,8,18
1555570955.07836,-62,9,18
1555570955.10961,-62,9,18
1555570955.14086,-62,9,18
1555570955.17211,-62,9,19
1555570955.20336,-62,9,18
1555570955.23461,-62,9,18
1555570955.26587,-62,9,18
1555570955.29712,-63,9,18
1555570955.32837,-62,9,19
1555570955.35962,-62,9,19
1555570955.39087,-62,9,18
1555570955.42212,-62,9,18
1555570955.45337,-62,9,18
1555570955.48463,-62,9,19
1555570955.51588,-62,9,18
1555570955.54713,-62,9,18
1555570955.57838,-62,9,18
1555570955.60963,-62,9,19
1555570955.64088,-62,9,18
1555570955.67213,-62,9,18
1555570955.70339,-62,9,18
1555570955.73464,-62,9,19
1555570955.76589,-63,9,18
1555570955.79714,-62,9,19
1555570955.82839,-62,9,18
1555570955.85964,-62,9,18
1555570955.89089,-62,9,18
1555570955.92215,-62,9,18
1555570955.9534,-62,9,19
1555570955.98465,-62,9,18
1555570956.0159,-62,9,18
1555570956.04715,-62,9,18
1555570956.0784,-62,9,18
1555570956.10965,-62,9,19
1555570956.14091,-62,9,19
1555570956.17216,-63,9,18
1555570956.20341,-62,9,18
1555570956.23466,-62,9,19
1555570956.26591,-63,9,18
1555570956.29716,-63,8,18
1555570956.32841,-62,9,19
1555570956.35967,-62,9,18
1555570956.39092,-62,9,18
1555570956.42217,-62,9,18
1555570956.45342,-62,9,18
1555570956.48467,-62,9,18
1555570956.51592,-62,9,18
1555570956.54717,-62,9,18
1555570956.57843,-62,9,18
1555570956.60968,-63,9,18
1555570956.64093,-62,9,18
1555570956.67218,-62,9,18
1555570956.70343,-62,9,18
1555570956.73468,-62,9,18
1555570956.76593,-63,9,18
1555570956.79719,-62,9,19
1555570956.82844,-62,9,18
1555570956.85969,-62,9,18
1555570956.89094,-62,9,18
1555570956.92219,-62,9,19
1555570956.95344,-62,9,19
1555570956.98469,-62,9,18
1555570957.01595,-62,9,18
1555570957.0472,-62,9,18
1555570957.07845,-62,9,18
1555570957.1097,-62,9,18
1555570957.14095,-62,9,19
1555570957.1722,-62,9,18
1555570957.20345,-62,9,18
1555570957.23471,-62,9,18
1555570957.26596,-62,9,19
1555570957.29721,-62,9,19
1555570957.32846,-62,9,18
1555570957.35971,-62,9,19
1555570957.39096,-62,9,18
1555570957.42221,-63,9,18
1555570957.45347,-62,9,18
1555570957.48472,-62,9,19
1555570957.51597,-62,9,18
1555570957.54722,-63,9,18
1555570957.57847,-63,9,18
1555570957.60972,-62,8,19
1555570957.64098,-62,9,19
1555570957.67223,-63,9,18
1555570957.70348,-62,8,19
1555570957.73473,-62,9,19
1555570957.76598,-63,9,19
1555570957.79723,-62,8,19
1555570957.82848,-62,9,19
1555570957.85974,-62,9,18
1555570957.89099,-62,9,19
1555570957.92224,-62,9,18
1555570957.95349,-62,9,18
1555570957.98474,-62,9,19
1555570958.01599,-62,9,19
1555570958.04724,-62,9,18
1555570958.0785,-62,9,18
1555570958.10975,-62,9,19
1555570958.141,-62,9,19
1555570958.17225,-62,9,19
1555570958.2035,-62,9,19
1555570958.23475,-62,9,19
1555570958.266,-62,9,18
1555570958.29726,-62,9,19
1555570958.32851,-62,9,18
1555570958.35976,-62,9,19
1555570958.39101,-62,9,19
1555570958.42226,-62,9,19
1555570958.45351,-62,9,19
1555570958.48476,-62,9,18
1555570958.51602,-62,9,19
1555570958.54727,-62,9,18
1555570958.57852,-62,9,18
1555570958.60977,-62,9,19
1555570958.64102,-62,9,19
1555570958.67227,-62,9,18
1555570958.70352,-62,9,18
1555570958.73478,-63,9,18
1555570958.76603,-62,9,19
1555570958.79728,-62,9,19
1555570958.82853,-62,9,19
1555570958.85978,-62,9,18
1555570958.89103,-62,9,18
1555570958.92228,-62,9,18
1555570958.95354,-62,9,18
1555570958.98479,-63,9,18
1555570959.01604,-62,9,19
1555570959.04729,-62,9,18
1555570959.07854,-62,9,18
1555570959.10979,-62,9,18
1555570959.14104,-62,9,19
1555570959.1723,-63,9,18
1555570959.20355,-63,9,18
1555570959.2348,-62,9,19
1555570959.26605,-62,9,18
1555570959.2973,-62,8,18
1555570959.32855,-62,9,18
1555570959.3598,-62,9,18
1555570959.39106,-62,9,19
1555570959.42231,-62,8,18
1555570959.45356,-62,9,18
1555570959.48481,-62,9,18
1555570959.51606,-62,9,18
1555570959.54731,-62,9,19
1555570959.57856,-62,9,19
1555570959.60982,-62,9,19
1555570959.64107,-62,9,18
1555570959.67232,-62,9,18
1555570959.70357,-62,9,18
1555570959.73482,-62,9,19
1555570959.76607,-62,9,18
1555570959.79732,-62,9,18
1555570959.82858,-62,9,19
1555570959.85983,-63,9,18
1555570959.89108,-62,9,18
1555570959.92233,-63,9,18
1555570959.95358,-62,9,18
1555570959.98483,-62,9,19
1555570960.01608,-62,9,18
1555570960.04734,-62,9,18
1555570960.07859,-62,9,18
1555570960.10984,-62,9,18
1555570960.14109,-62,9,18
1555570960.17234,-62,9,19
1555570960.20359,-62,9,19
1555570960.23485,-62,9,18
1555570960.2661,-62,9,18
1555570960.29735,-62,9,18
1555570960.3286,-62,9,18
1555570960.35985,-62,9,18
1555570960.3911,-62,9,19
1555570960.42235,-63,9,18
1555570960.45361,-62,9,19
1555570960.48486,-62,9,18
1555570960.51611,-62,9,18
1555570960.54736,-62,9,19
1555570960.57861,-62,9,19
1555570960.60986,-62,9,18
1555570960.64111,-62,9,18
1555570960.67237,-62,9,18
1555570960.70362,-62,9,18
1555570960.73487,-62,9,19
1555570960.76612,-62,9,18
1555570960.79737,-62,9,19
1555570960.82862,-62,9,18
1555570960.85987,-63,9,18
1555570960.89113,-62,9,18
1555570960.92238,-62,9,19
1555570960.95363,-62,9,18
1555570960.98488,-63,9,18
1555570961.01613,-62,9,19
1555570961.04738,-62,9,18
1555570961.07863,-63,9,18
1555570961.10989,-62,9,18
1555570961.14114,-62,9,18
1555570961.17239,-63,9,18
1555570961.20364,-62,9,18
1555570961.23489,-62,9,18
1555570961.26614,-62,9,18
1555570961.29739,-62,9,18
1555570961.32865,-62,9,18
1555570961.3599,-62,9,19
1555570961.39115,-62,9,18
1555570961.4224,-62,9,18
1555570961.45365,-62,9,18
1555570961.4849,-62,9,18
1555570961.51615,-62,9,18
1555570961.54741,-62,9,19
1555570961.57866,-62,9,19
1555570961.60991,-62,9,18
1555570961.64116,-62,9,18
1555570961.67241,-62,9,19
1555570961.70366,-62,9,18
1555570961.73491,-62,9,18
1555570961.76617,-62,9,18
1555570961.79742,-62,9,19
1555570961.82867,-62,9,18
1555570961.85992,-62,9,18
1555570961.89117,-62,9,18
1555570961.92242,-62,9,19
1555570961.95367,-62,9,18
1555570961.98493,-62,9,19
1555570962.01618,-62,9,19
1555570962.04743,-62,9,18
1555570962.07868,-62,9,18
1555570962.10993,-62,9,18
1555570962.14118,-62,9,18
1555570962.17243,-62,9,18
1555570962.20369,-62,9,18
1555570962.23494,-62,9,18
1555570962.26619,-62,9,18
1555570962.29744,-62,9,18
1555570962.32869,-62,9,18
1555570962.35994,-62,9,19
1555570962.39119,-62,9,18
1555570962.42245,-62,9,18
1555570962.4537,-62,9,18
1555570962.48495,-62,9,18
1555570962.5162,-62,9,18
1555570962.54745,-63,9,19
1555570962.5787,-62,9,19
1555570962.60996,-62,9,18
1555570962.64121,-62,9,18
1555570962.67246,-62,9,18
1555570962.70371,-62,9,18
1555570962.73496,-62,9,18
1555570962.76621,-62,9,18
1555570962.79746,-62,9,18
1555570962.82872,-62,9,18
1555570962.85997,-62,9,18
1555570962.89122,-62,9,18
1555570962.92247,-62,9,19
1555570962.95372,-62,9,19
1555570962.98497,-62,9,18
1555570963.01622,-62,9,18
1555570963.04748,-62,9,18
1555570963.07873,-62,9,18
1555570963.10998,-62,9,19
1555570963.14123,-62,9,19
1555570963.17248,-62,9,18
1555570963.20373,-62,9,18
1555570963.23498,-62,9,19
1555570963.26624,-62,9,18
1555570963.29749,-62,9,18
1555570963.32874,-62,9,18
1555570963.35999,-62,9,18
1555570963.39124,-62,9,18
1555570963.42249,-62,9,19
1555570963.45374,-62,9,18
1555570963.485,-62,9,19
1555570963.51625,-62,9,18
1555570963.5475,-62,9,18
1555570963.57875,-62,9,18
1555570963.61,-62,9,19
1555570963.64125,-62,9,19
1555570963.6725,-62,9,18
1555570963.70376,-62,9,18
1555570963.73501,-62,9,18
1555570963.76626,-62,9,18
1555570963.79751,-62,9,19
1555570963.82876,-62,9,19
1555570963.86001,-62,9,18
1555570963.89126,-62,9,19
1555570963.92252,-62,9,19
1555570963.95377,-62,9,19
1555570963.98502,-62,9,18
1555570964.01627,-62,9,18
1555570964.04752,-62,9,18
1555570964.07877,-62,9,18
1555570964.11002,-62,9,18
1555570964.14128,-62,9,19
1555570964.17253,-62,9,19
1555570964.20378,-62,9,18
1555570964.23503,-62,9,18
1555570964.26628,-62,9,18
1555570964.29753,-62,9,18
1555570964.32878,-62,9,19
1555570964.36004,-62,9,19
1555570964.39129,-63,9,18
1555570964.42254,-62,9,19
1555570964.45379,-62,9,19
1555570964.48504,-63,9,18
1555570964.51629,-62,9,19
1555570964.54754,-62,9,19
1555570964.5788,-62,9,18
1555570964.61005,-62,9,18
1555570964.6413,-62,9,18
1555570964.67255,-62,9,18
1555570964.7038,-62,9,19
1555570964.73505,-62,9,19
1555570964.7663,-62,9,18
1555570964.79756,-62,9,19
1555570964.82881,-62,9,18
1555570964.86006,-62,9,19
1555570964.89131,-62,9,18
1555570964.92256,-62,9,19
1555570964.95381,-62,9,18
1555570964.98506,-62,9,19
1555570965.01632,-62,9,19
1555570965.04757,-62,9,18
1555570965.07882,-62,9,19
1555570965.11007,-62,9,19
1555570965.14132,-62,9,19
1555570965.17257,-62,9,18
1555570965.20383,-62,9,18
1555570965.23508,-62,9,19
1555570965.26633,-62,9,19
1555570965.29758,-62,9,19
1555570965.32883,-62,9,19
1555570965.36008,-62,9,18
1555570965.39133,-62,9,19
1555570965.42259,-62,9,18
1555570965.45384,-62,9,18
1555570965.48509,-62,9,19
1555570965.51634,-62,9,19
1555570965.54759,-62,9,18
1555570965.57884,-62,9,19
1555570965.61009,-62,9,18
1555570965.64135,-62,9,18
1555570965.6726,-62,9,19
1555570965.70385,-62,9,19
1555570965.7351,-62,9,18
1555570965.76635,-62,9,18
1555570965.7976,-62,9,18
1555570965.82885,-62,9,18
1555570965.86011,-62,9,18
1555570965.89136,-62,9,18
1555570965.92261,-62,9,18
1555570965.95386,-62,9,18
1555570965.98511,-62,9,19
1555570966.01636,-62,9,18
1555570966.04761,-62,9,18
1555570966.07887,-62,9,19
1555570966.11012,-62,9,19
1555570966.14137,-62,9,18
1555570966.17262,-62,9,18
1555570966.20387,-62,9,19
1555570966.23512,-62,9,18
1555570966.26637,-62,9,18
1555570966.29763,-62,9,19
1555570966.32888,-62,9,19
1555570966.36013,-63,9,18
1555570966.39138,-62,9,18
1555570966.42263,-62,9,19
1555570966.45388,-63,9,19
1555570966.48513,-62,9,19
1555570966.51639,-63,9,18
1555570966.54764,-62,9,19
1555570966.57889,-62,9,18
1555570966.61014,-62,9,18
1555570966.64139,-62,9,18
1555570966.67264,-62,9,19
1555570966.70389,-62,9,18
1555570966.73515,-62,9,18
1555570966.7664,-62,9,19
1555570966.79765,-62,9,18
1555570966.8289,-62,9,18
1555570966.86015,-62,9,19
1555570966.8914,-62,9,18
1555570966.92265,-62,9,18
1555570966.95391,-62,9,18
1555570966.98516,-62,9,18
1555570967.01641,-62,9,18
1555570967.04766,-62,9,18
1555570967.07891,-62,9,19
1555570967.11016,-62,9,18
1555570967.14141,-62,9,19
1555570967.17267,-62,9,18
1555570967.20392,-62,9,18
1555570967.23517,-62,9,18
1555570967.26642,-62,9,19
1555570967.29767,-62,9,18
1555570967.32892,-62,9,18
1555570967.36017,-62,10,18
1555570967.39143,-62,9,18
1555570967.42268,-62,9,18
1555570967.45393,-62,9,19
1555570967.48518,-62,9,19
1555570967.51643,-62,9,18
1555570967.54768,-62,9,18
1555570967.57894,-62,9,18
1555570967.61019,-62,9,18
1555570967.64144,-62,9,18
1555570967.67269,-62,9,19
1555570967.70394,-62,9,18
1555570967.73519,-62,9,18
1555570967.76644,-62,10,18
1555570967.7977,-62,9,18
1555570967.82895,-62,9,18
1555570967.8602,-62,9,18
1555570967.89145,-62,9,18
1555570967.9227,-62,10,19
1555570967.95395,-62,9,18
1555570967.9852,-62,9,18
1555570968.01646,-62,9,19
1555570968.04771,-62,9,18
1555570968.07896,-62,9,18
1555570968.11021,-62,9,19
1555570968.14146,-63,9,18
1555570968.17271,-62,9,18
1555570968.20396,-62,10,18
1555570968.23522,-62,10,18
1555570968.26647,-62,9,18
1555570968.29772,-62,9,19
1555570968.32897,-62,10,18
1555570968.36022,-62,9,18
1555570968.39147,-62,9,18
1555570968.42272,-62,10,18
1555570968.45398,-62,9,18
1555570968.48523,-62,10,19
1555570968.51648,-62,9,18
1555570968.54773,-62,9,19
1555570968.57898,-62,9,18
1555570968.61023,-62,10,18
1555570968.64148,-62,9,18
1555570968.67274,-62,9,18
1555570968.70399,-62,9,18
1555570968.73524,-62,9,18
1555570968.76649,-62,9,19
1555570968.79774,-62,9,18
1555570968.82899,-62,10,18
1555570968.86024,-62,9,18
1555570968.8915,-62,9,19
1555570968.92275,-62,9,19
1555570968.954,-62,9,18
1555570968.98525,-62,9,18
1555570969.0165,-62,10,18
1555570969.04775,-62,9,18
1555570969.079,-62,9,19
1555570969.11026,-62,9,19
1555570969.14151,-62,9,18
1555570969.17276,-62,9,18
1555570969.20401,-62,9,18
1555570969.23526,-62,9,19
1555570969.26651,-62,9,19
1555570969.29776,-62,9,18
1555570969.32902,-62,9,18
1555570969.36027,-62,9,18
1555570969.39152,-62,9,18
1555570969.42277,-62,9,18
1555570969.45402,-62,9,19
1555570969.48527,-62,9,18
1555570969.51652,-62,9,18
1555570969.54778,-62,9,18
1555570969.57903,-62,9,18
1555570969.61028,-62,9,18
1555570969.64153,-62,9,18
1555570969.67278,-62,9,18
1555570969.70403,-62,9,19
1555570969.73529,-62,9,19
1555570969.76654,-62,9,18
1555570969.79779,-62,9,18
1555570969.82904,-62,10,18
1555570969.86029,-62,9,18
1555570969.89154,-62,9,19
1555570969.92279,-62,9,19
1555570969.95405,-62,9,18
1555570969.9853,-62,9,19
1555570970.01655,-62,9,18
1555570970.0478,-62,9,19
1555570970.07905,-62,9,18
1555570970.1103,-62,9,18
1555570970.14155,-62,9,18
1555570970.17281,-62,9,19
1555570970.20406,-62,10,19
1555570970.23531,-62,9,19
1555570970.26656,-62,9,19
1555570970.29781,-62,9,19
1555570970.32906,-62,9,19
1555570970.36031,-62,9,19
1555570970.39157,-62,9,19
1555570970.42282,-62,10,18
1555570970.45407,-62,9,19
1555570970.48532,-62,9,18
1555570970.51657,-62,9,19
1555570970.54782,-62,9,19
1555570970.57907,-62,9,19
1555570970.61033,-62,9,19
1555570970.64158,-62,9,18
1555570970.67283,-62,9,19
1555570970.70408,-62,9,19
1555570970.73533,-62,9,18
1555570970.76658,-62,9,19
1555570970.79783,-62,9,19
1555570970.82909,-62,9,18
1555570970.86034,-62,9,19
1555570970.89159,-62,9,19
1555570970.92284,-62,9,19
1555570970.95409,-62,9,19
1555570970.98534,-62,9,18
1555570971.01659,-62,9,18
1555570971.04785,-62,9,19
1555570971.0791,-62,9,19
1555570971.11035,-62,9,18
1555570971.1416,-62,9,19
1555570971.17285,-62,9,18
1555570971.2041,-62,9,19
1555570971.23535,-62,9,19
1555570971.26661,-62,9,19
1555570971.29786,-62,9,18
1555570971.32911,-62,9,18
1555570971.36036,-62,9,19
1555570971.39161,-62,9,18
1555570971.42286,-62,9,19
1555570971.45411,-62,9,18
1555570971.48537,-62,9,19
1555570971.51662,-62,9,19
1555570971.54787,-62,9,19
1555570971.57912,-62,9,19
1555570971.61037,-62,10,19
1555570971.64162,-62,9,18
1555570971.67287,-62,9,18
1555570971.70413,-62,9,19
1555570971.73538,-62,9,18
1555570971.76663,-62,9,19
1555570971.79788,-62,10,19
1555570971.82913,-62,9,18
1555570971.86038,-62,10,19
1555570971.89163,-62,10,19
1555570971.92289,-62,10,18
1555570971.95414,-62,9,19
1555570971.98539,-62,9,18
1555570972.01664,-62,10,19
1555570972.04789,-62,9,18
1555570972.07914,-62,9,18
1555570972.11039,-62,10,19
1555570972.14165,-62,9,19
1555570972.1729,-62,9,19
1555570972.20415,-62,9,18
1555570972.2354,-62,9,19
1555570972.26665,-62,9,19
1555570972.2979,-62,10,19
1555570972.32915,-63,9,18
1555570972.36041,-62,9,19
1555570972.39166,-62,9,18
1555570972.42291,-62,10,19
1555570972.45416,-62,9,18
1555570972.48541,-62,9,19
1555570972.51666,-62,10,18
1555570972.54792,-62,10,18
1555570972.57917,-62,9,18
1555570972.61042,-63,9,19
1555570972.64167,-62,10,19
1555570972.67292,-62,9,18
1555570972.70417,-62,9,18
1555570972.73542,-62,10,19
1555570972.76668,-62,9,18
1555570972.79793,-62,10,18
1555570972.82918,-62,10,19
1555570972.86043,-62,9,19
1555570972.89168,-63,10,18
1555570972.92293,-62,9,18
1555570972.95418,-62,10,19
1555570972.98544,-62,9,18
1555570973.01669,-62,10,18
1555570973.04794,-62,9,18
1555570973.07919,-62,9,19
1555570973.11044,-62,9,19
1555570973.14169,-63,9,18
1555570973.17294,-62,9,19
1555570973.2042,-62,9,18
1555570973.23545,-62,9,18
1555570973.2667,-62,9,19
1555570973.29795,-62,9,19
1555570973.3292,-62,9,18
1555570973.36045,-63,9,18
1555570973.3917,-62,9,19
1555570973.42296,-62,10,19
1555570973.45421,-63,10,18
1555570973.48546,-62,9,18
1555570973.51671,-62,9,18
1555570973.54796,-62,9,18
1555570973.57921,-62,10,18
1555570973.61046,-62,9,19
1555570973.64172,-62,9,18
1555570973.67297,-62,9,18
1555570973.70422,-63,10,18
1555570973.73547,-62,9,19
1555570973.76672,-62,9,19
1555570973.79797,-62,9,18
1555570973.82922,-62,9,18
1555570973.86048,-62,9,18
1555570973.89173,-62,9,18
1555570973.92298,-62,10,19
1555570973.95423,-62,9,19
1555570973.98548,-62,9,19
1555570974.01673,-62,9,18
1555570974.04798,-62,9,18
1555570974.07924,-62,9,18
1555570974.11049,-62,9,18
1555570974.14174,-62,9,19
1555570974.17299,-62,9,19
1555570974.20424,-62,9,18
1555570974.23549,-63,9,18
1555570974.26674,-62,9,19
1555570974.298,-62,9,18
1555570974.32925,-62,9,18
1555570974.3605,-62,9,19
1555570974.39175,-62,9,19
1555570974.423,-62,9,18
1555570974.45425,-62,9,18
1555570974.4855,-63,9,18
1555570974.51676,-62,9,19
1555570974.54801,-62,9,18
1555570974.57926,-62,9,18
1555570974.61051,-62,9,18
1555570974.64176,-62,9,19
1555570974.67301,-62,10,19
1555570974.70426,-62,9,18
1555570974.73552,-62,9,18
1555570974.76677,-62,10,18
1555570974.79802,-62,9,18
1555570974.82927,-62,9,19
1555570974.86052,-62,9,19
1555570974.89177,-63,9,18
1555570974.92303,-62,9,18
1555570974.95428,-62,9,19
1555570974.98553,-62,9,19
1555570975.01678,-62,9,18
1555570975.04803,-62,9,19
1555570975.07928,-62,9,18
1555570975.11053,-62,10,19
1555570975.14179,-62,9,19
1555570975.17304,-62,9,18
1555570975.20429,-62,9,19
1555570975.23554,-62,9,19
1555570975.26679,-62,9,19
1555570975.29804,-62,9,19
1555570975.32929,-62,9,18
1555570975.36055,-62,9,19
1555570975.3918,-62,9,19
1555570975.42305,-62,10,19
1555570975.4543,-62,10,19
1555570975.48555,-62,9,18
1555570975.5168,-62,9,18
1555570975.54805,-62,9,18
1555570975.57931,-62,9,18
1555570975.61056,-62,9,18
1555570975.64181,-62,9,18
1555570975.67306,-62,9,18
1555570975.70431,-62,9,19
1555570975.73556,-62,9,19
1555570975.76681,-62,9,18
1555570975.79807,-62,9,18
1555570975.82932,-62,9,19
1555570975.86057,-62,9,19
1555570975.89182,-62,9,19
1555570975.92307,-62,9,18
1555570975.95432,-62,10,19
1555570975.98557,-62,9,18
1555570976.01683,-62,9,19
1555570976.04808,-62,9,19
1555570976.07933,-62,10,18
1555570976.11058,-62,9,18
1555570976.14183,-62,9,19
1555570976.17308,-62,9,18
1555570976.20433,-62,9,18
1555570976.23559,-62,9,19
1555570976.26684,-62,9,18
1555570976.29809,-62,9,19
1555570976.32934,-62,9,19
1555570976.36059,-62,9,18
1555570976.39184,-62,10,19
1555570976.45435,-62,9,18
1555570976.42309,-62,9,19
1555570976.4856,-62,9,18
1555570976.51685,-62,9,19
1555570976.5481,-62,9,18
1555570976.57935,-62,10,18
1555570976.6106,-62,9,18
1555570976.64185,-62,9,19
1555570976.67311,-62,9,19
1555570976.70436,-62,9,18
1555570976.73561,-62,9,18
1555570976.76686,-62,10,19
1555570976.79811,-62,9,18
1555570976.82936,-62,9,19
1555570976.86061,-62,10,19
1555570976.89187,-62,9,18
1555570976.92312,-62,9,18
1555570976.95437,-62,9,18
1555570976.98562,-62,9,18
1555570977.01687,-62,9,19
1555570977.04812,-62,9,19
1555570977.07938,-62,9,18
1555570977.11063,-62,9,19
1555570977.14188,-62,9,19
1555570977.17313,-62,10,18
1555570977.20438,-62,9,18
1555570977.23563,-62,9,18
1555570977.26688,-62,10,19
1555570977.29814,-62,9,19
1555570977.32939,-62,9,19
1555570977.36064,-62,9,18
1555570977.39189,-62,9,18
1555570977.42314,-62,9,18
1555570977.45439,-62,9,19
1555570977.48564,-62,9,19
1555570977.5169,-62,9,19
1555570977.54815,-62,10,19
1555570977.5794,-62,9,18
1555570977.61065,-62,9,19
1555570977.6419,-62,10,18
1555570977.67315,-62,9,18
1555570977.7044,-62,9,19
1555570977.73566,-62,9,18
1555570977.76691,-62,9,18
1555570977.79816,-62,9,19
1555570977.82941,-62,9,19
1555570977.86066,-62,9,18
1555570977.89191,-62,10,19
1555570977.92316,-62,10,18
1555570977.95442,-62,9,18
1555570977.98567,-62,9,19
1555570978.01692,-62,10,19
1555570978.04817,-62,9,18
1555570978.07942,-62,9,19
1555570978.11067,-62,9,19
1555570978.14192,-62,9,18
1555570978.17318,-62,9,19
1555570978.20443,-62,9,18
1555570978.23568,-62,9,18
1555570978.26693,-62,9,19
1555570978.29818,-62,9,18
1555570978.32943,-62,9,19
1555570978.36068,-62,9,18
1555570978.39194,-62,9,18
1555570978.42319,-62,10,19
1555570978.45444,-63,9,18
1555570978.48569,-62,9,18
1555570978.51694,-62,10,19
1555570978.54819,-62,10,19
1555570978.57944,-62,9,18
1555570978.6107,-62,9,19
1555570978.64195,-62,9,19
1555570978.6732,-62,9,19
1555570978.70445,-62,9,18
1555570978.7357,-62,9,19
1555570978.76695,-62,9,18
1555570978.7982,-62,10,19
1555570978.82946,-62,9,19
1555570978.86071,-62,9,19
1555570978.89196,-62,9,19
1555570978.92321,-62,9,18
1555570978.95446,-62,9,19
1555570978.98571,-62,9,19
1555570979.01696,-62,10,18
1555570979.04822,-62,9,19
1555570979.07947,-62,9,19
1555570979.11072,-62,9,18
1555570979.14197,-62,9,18
1555570979.17322,-62,9,19
1555570979.20447,-62,9,19
1555570979.23572,-62,9,19
1555570979.26698,-62,9,18
1555570979.29823,-62,9,19
1555570979.32948,-62,9,19
1555570979.36073,-62,9,19
1555570979.39198,-62,9,18
1555570979.42323,-62,10,18
1555570979.45448,-62,10,18
1555570979.48574,-62,9,19
1555570979.51699,-62,9,19
1555570979.54824,-62,9,18
1555570979.57949,-62,9,18
1555570979.61074,-62,10,19
1555570979.64199,-62,9,18
1555570979.67324,-62,9,18
1555570979.7045,-62,10,19
1555570979.73575,-62,10,19
1555570979.767,-62,9,19
1555570979.79825,-62,9,19
1555570979.8295,-62,10,18
1555570979.86075,-62,9,19
1555570979.89201,-62,9,18
1555570979.92326,-62,10,19
1555570979.95451,-62,10,18
1555570979.98576,-62,10,18
1555570980.01701,-62,10,19
1555570980.04826,-62,9,18
1555570980.07951,-62,10,18
1555570980.11077,-62,9,18
1555570980.14202,-62,9,19
1555570980.17327,-62,9,18
1555570980.20452,-62,10,19
1555570980.23577,-62,9,18
1555570980.26702,-62,9,18
1555570980.29827,-62,10,19
1555570980.32953,-62,9,18
1555570980.36078,-62,9,18
1555570980.39203,-62,9,19
1555570980.42328,-62,9,18
1555570980.45453,-62,9,18
1555570980.48578,-62,10,19
1555570980.51703,-63,9,18
1555570980.54829,-62,9,18
1555570980.57954,-62,9,19
1555570980.61079,-62,9,19
1555570980.64204,-62,9,19
1555570980.67329,-62,9,19
1555570980.70454,-62,9,18
1555570980.73579,-62,9,18
1555570980.76705,-62,9,18
1555570980.7983,-62,9,18
1555570980.82955,-62,9,18
1555570980.8608,-62,9,18
1555570980.89205,-62,10,18
1555570980.9233,-62,9,19
1555570980.95455,-62,9,18
1555570980.98581,-62,10,19
1555570981.01706,-62,9,19
1555570981.04831,-62,9,18
1555570981.07956,-62,9,19
1555570981.11081,-62,10,18
1555570981.14206,-63,9,18
1555570981.17331,-62,9,18
1555570981.20457,-62,10,19
1555570981.23582,-62,9,18
1555570981.26707,-62,9,18
1555570981.29832,-62,10,19
1555570981.32957,-62,9,19
1555570981.36082,-62,9,19
1555570981.39207,-62,9,18
1555570981.42333,-62,9,18
1555570981.45458,-62,9,18
1555570981.48583,-62,9,18
1555570981.51708,-62,10,18
1555570981.54833,-62,9,19
1555570981.57958,-62,9,18
1555570981.61083,-62,9,18
1555570981.64209,-62,9,18
1555570981.67334,-62,9,19
1555570981.70459,-62,9,18
1555570981.73584,-62,9,19
1555570981.76709,-62,9,18
1555570981.79834,-62,9,18
1555570981.82959,-62,9,19
1555570981.86085,-62,9,19
1555570981.8921,-62,9,18
1555570981.92335,-62,10,19
1555570981.9546,-62,9,18
1555570981.98585,-62,9,19
1555570982.0171,-62,9,19
1555570982.04836,-62,9,18
1555570982.07961,-62,9,19
1555570982.11086,-62,10,18
1555570982.14211,-62,9,18
1555570982.17336,-62,9,19
1555570982.20461,-62,9,19
1555570982.23586,-62,9,18
1555570982.26712,-62,9,18
1555570982.29837,-62,10,18
1555570982.32962,-62,9,18
1555570982.36087,-62,9,18
1555570982.39212,-62,9,18
1555570982.42337,-62,10,18
1555570982.45462,-62,10,19
1555570982.48588,-62,10,19
1555570982.51713,-62,9,18
1555570982.54838,-62,9,18
1555570982.57963,-62,9,18
1555570982.61088,-62,9,19
1555570982.64213,-62,10,18
1555570982.67338,-62,9,19
1555570982.70464,-62,9,18
1555570982.73589,-62,9,18
1555570982.76714,-62,10,18
1555570982.79839,-62,10,18
1555570982.82964,-62,9,18
1555570982.86089,-62,9,19
1555570982.89214,-62,9,19
1555570982.9234,-63,9,18
1555570982.95465,-62,9,18
1555570982.9859,-62,10,19
1555570983.01715,-62,9,18
1555570983.0484,-62,9,19
1555570983.07965,-62,10,19
1555570983.1109,-62,9,18
1555570983.14216,-62,9,18
1555570983.17341,-62,10,18
1555570983.20466,-62,9,18
1555570983.23591,-62,9,19
1555570983.26716,-62,9,19
1555570983.29841,-62,9,18
1555570983.32966,-62,9,19
1555570983.36092,-62,10,19
1555570983.39217,-62,9,18
1555570983.42342,-62,9,18
1555570983.45467,-62,9,19
1555570983.48592,-62,10,19
1555570983.51717,-62,9,18
1555570983.54842,-62,9,18
1555570983.57968,-62,10,18
1555570983.61093,-62,9,18
1555570983.64218,-62,9,18
1555570983.67343,-62,9,18
1555570983.70468,-62,9,19
1555570983.73593,-62,9,18
1555570983.76718,-62,9,19
1555570983.79844,-62,10,18
1555570983.82969,-62,9,18
1555570983.86094,-62,9,18
1555570983.89219,-62,9,19
1555570983.92344,-62,9,18
1555570983.95469,-62,9,18
1555570983.98594,-62,10,19
1555570984.0172,-62,9,18
1555570984.04845,-62,9,19
1555570984.0797,-62,9,18
1555570984.11095,-62,9,18
1555570984.1422,-62,10,19
1555570984.17345,-62,9,19
1555570984.2047,-62,9,18
1555570984.23596,-62,9,19
1555570984.26721,-62,9,18
1555570984.29846,-62,9,18
1555570984.32971,-62,9,19
1555570984.36096,-62,9,18
1555570984.39221,-62,9,18
1555570984.42347,-62,10,19
1555570984.45472,-62,9,18
1555570984.48597,-62,9,19
1555570984.51722,-62,9,18
1555570984.54847,-62,9,18
1555570984.57972,-62,10,18
1555570984.61097,-62,9,19
1555570984.64223,-62,9,18
1555570984.67348,-62,10,19
1555570984.70473,-62,9,19
1555570984.73598,-62,9,18
1555570984.76723,-62,10,18
1555570984.79848,-62,10,18
1555570984.82973,-62,9,18
1555570984.86099,-62,9,19
1555570984.89224,-62,9,19
1555570984.92349,-62,9,18
1555570984.95474,-62,9,18
1555570984.98599,-63,9,19
1555570985.01724,-62,9,19
1555570985.04849,-62,10,19
1555570985.07975,-63,10,18
1555570985.111,-62,9,19
1555570985.14225,-62,10,18
1555570985.1735,-62,9,18
1555570985.20475,-62,9,18
1555570985.236,-62,9,19
1555570985.26725,-62,9,19
1555570985.29851,-62,9,19
1555570985.32976,-62,9,18
1555570985.36101,-62,9,18
1555570985.39226,-62,9,18
1555570985.42351,-62,9,18
1555570985.45476,-62,9,19
1555570985.48601,-62,9,18
1555570985.51727,-62,9,19
1555570985.54852,-62,9,19
1555570985.57977,-62,9,19
1555570985.61102,-63,9,18
1555570985.64227,-62,9,18
1555570985.67352,-62,9,18
1555570985.70477,-62,9,19
1555570985.73603,-62,9,19
1555570985.76728,-62,9,19
1555570985.79853,-62,9,19
1555570985.82978,-62,9,18
1555570985.86103,-62,9,18
1555570985.89228,-62,9,19
1555570985.92353,-62,9,19
1555570985.95479,-62,9,18
1555570985.98604,-62,10,19
1555570986.01729,-63,9,19
1555570986.04854,-62,9,19
1555570986.07979,-61,9,18
1555570986.11104,-62,10,18
1555570986.14229,-62,9,19
1555570986.17355,-62,9,19
1555570986.2048,-62,9,18
1555570986.23605,-63,10,19
1555570986.2673,-62,9,19
1555570986.29855,-62,9,18
1555570986.3298,-62,10,18
1555570986.36105,-62,9,18
1555570986.39231,-62,9,18
1555570986.42356,-62,8,19
1555570986.45481,-63,9,19
1555570986.48606,-62,8,19
1555570986.51731,-62,9,19
1555570986.54856,-62,8,17
1555570986.57981,-63,9,18
1555570986.61107,-62,9,19
1555570986.64232,-62,9,19
1555570986.67357,-62,9,18
1555570986.70482,-62,9,19
1555570986.73607,-62,8,19
1555570986.76732,-62,9,18
1555570986.79857,-62,9,19
1555570986.82983,-62,9,19
1555570986.86108,-62,9,18
1555570986.89233,-62,9,18
1555570986.92358,-62,9,19
1555570986.95483,-62,9,19
1555570986.98608,-62,9,18
1555570987.01733,-62,9,18
1555570987.04859,-63,9,18
1555570987.07984,-62,9,19
1555570987.11109,-63,9,19
1555570987.14234,-62,8,18
1555570987.17359,-62,8,19
1555570987.20484,-63,8,18
1555570987.2361,-63,8,19
1555570987.26735,-62,8,19
1555570987.2986,-63,8,18
1555570987.32985,-62,8,19
1555570987.3611,-62,8,18
1555570987.39235,-63,8,19
1555570987.4236,-62,8,19
1555570987.45486,-62,8,19
1555570987.48611,-62,8,19
1555570987.51736,-62,8,19
1555570987.54861,-62,8,19
1555570987.57986,-62,8,19
1555570987.61111,-62,8,19
1555570987.64236,-62,8,19
1555570987.67362,-62,8,19
1555570987.70487,-62,8,19
1555570987.73612,-62,8,19
1555570987.76737,-62,8,19
1555570987.79862,-62,8,18
1555570987.82987,-62,8,19
1555570987.86112,-62,8,19
1555570987.89238,-62,8,19
1555570987.92363,-62,8,19
1555570987.95488,-62,8,18
1555570987.98613,-62,8,19
1555570988.01738,-62,8,19
1555570988.04863,-62,8,19
1555570988.07988,-63,8,18
1555570988.11114,-62,8,18
1555570988.14239,-63,8,19
1555570988.17364,-62,8,19
1555570988.20489,-62,8,19
1555570988.23614,-62,8,18
1555570988.26739,-62,8,18
1555570988.29864,-62,8,19
1555570988.3299,-62,8,19
1555570988.36115,-62,8,18
1555570988.3924,-62,8,18
1555570988.4549,-63,8,18
1555570988.42365,-62,8,19
1555570988.48615,-63,8,19
1555570988.5174,-62,8,19
1555570988.54866,-63,8,19
1555570988.57991,-62,8,18
1555570988.61116,-63,8,18
1555570988.64241,-62,8,19
1555570988.67366,-62,8,19
1555570988.70491,-62,8,19
1555570988.73616,-62,8,19
1555570988.76742,-62,8,19
1555570988.79867,-62,8,19
1555570988.82992,-62,8,19
1555570988.86117,-63,8,18
1555570988.89242,-63,8,18
1555570988.92367,-62,8,19
1555570988.95492,-62,8,19
1555570988.98618,-62,8,18
1555570989.01743,-62,8,19
1555570989.04868,-62,8,19
1555570989.07993,-62,8,19
1555570989.11118,-63,8,18
1555570989.14243,-62,8,18
1555570989.17368,-62,8,18
1555570989.20494,-62,8,18
1555570989.23619,-62,7,19
1555570989.26744,-62,8,19
1555570989.29869,-63,8,18
1555570989.32994,-63,8,19
1555570989.36119,-62,8,19
1555570989.39245,-62,8,18
1555570989.4237,-63,8,19
1555570989.45495,-62,8,19
1555570989.4862,-63,8,19
1555570989.51745,-62,8,18
1555570989.5487,-62,8,18
1555570989.57995,-62,8,19
1555570989.61121,-63,8,18
1555570989.64246,-62,8,19
1555570989.67371,-62,8,19
1555570989.70496,-62,8,19
1555570989.73621,-62,8,19
1555570989.76746,-62,8,19
1555570989.79871,-62,8,19
1555570989.82997,-62,8,19
1555570989.86122,-62,8,19
1555570989.89247,-62,8,19
1555570989.92372,-62,8,19
1555570989.95497,-62,8,19
1555570989.98622,-62,8,19
1555570990.01747,-62,8,19
1555570990.04873,-62,8,19
1555570990.07998,-62,8,19
1555570990.11123,-62,8,18
1555570990.14248,-62,8,19
1555570990.17373,-62,8,19
1555570990.20498,-63,8,18
1555570990.23623,-62,8,19
1555570990.26749,-62,8,19
1555570990.29874,-62,8,19
1555570990.32999,-62,7,19
1555570990.36124,-62,8,19
1555570990.39249,-62,8,18
1555570990.42374,-62,8,19
1555570990.45499,-62,8,19
1555570990.48625,-62,8,19
1555570990.5175,-63,8,19
1555570990.54875,-62,8,19
1555570990.58,-62,8,19
1555570990.61125,-62,8,19
1555570990.6425,-62,8,19
1555570990.67375,-62,8,19
1555570990.70501,-62,7,19
1555570990.73626,-62,8,19
1555570990.76751,-62,8,19
1555570990.79876,-62,8,19
1555570990.83001,-62,8,19
1555570990.86126,-62,8,19
1555570990.89251,-62,8,19
1555570990.92377,-62,8,19
1555570990.95502,-62,8,19
1555570990.98627,-62,8,19
1555570991.01752,-62,8,19
1555570991.04877,-62,8,19
1555570991.08002,-62,8,19
1555570991.11127,-62,8,19
1555570991.14253,-63,8,19
1555570991.17378,-63,8,19
1555570991.20503,-61,7,19
1555570991.23628,-61,8,19
1555570991.26753,-62,8,19
1555570991.29878,-62,8,19
1555570991.33003,-62,8,20
1555570991.42379,-62,8,19
1555570991.45504,-62,8,19
1555570991.36129,-62,8,19
1555570991.39254,-63,8,19
1555570991.48629,-62,8,19
1555570991.51754,-62,8,19
1555570991.54879,-62,8,19
1555570991.58005,-63,7,19
1555570991.6113,-61,7,20
1555570991.64255,-62,8,20
1555570991.6738,-63,8,19
1555570991.70505,-62,7,19
1555570991.7363,-62,8,19
1555570991.76756,-62,7,19
1555570991.79881,-62,7,19
1555570991.83006,-62,8,20
1555570991.86131,-62,8,19
1555570991.89256,-62,8,19
1555570991.92381,-62,8,19
1555570991.95506,-62,8,19
1555570991.98632,-62,8,19
1555570992.01757,-62,8,19
1555570992.04882,-62,8,19
1555570992.08007,-62,8,19
1555570992.11132,-62,8,19
1555570992.14257,-62,7,19
1555570992.17382,-62,8,19
1555570992.20508,-62,8,19
1555570992.23633,-62,8,19
1555570992.26758,-62,8,19
1555570992.29883,-62,8,19
1555570992.33008,-62,8,19
1555570992.36133,-62,8,19
1555570992.39258,-62,8,19
1555570992.42384,-62,8,19
1555570992.45509,-62,8,19
1555570992.48634,-62,8,19
1555570992.51759,-62,8,19
1555570992.54884,-62,8,19
1555570992.58009,-62,8,19
1555570992.61134,-62,8,19
1555570992.6426,-62,8,19
1555570992.67385,-62,8,19
1555570992.7051,-62,8,19
1555570992.73635,-62,8,19
1555570992.7676,-62,8,19
1555570992.79885,-62,8,19
1555570992.8301,-62,8,19
1555570992.86136,-62,7,19
1555570992.89261,-62,8,19
1555570992.92386,-62,8,19
1555570992.95511,-62,8,19
1555570992.98636,-62,8,19
1555570993.01761,-62,7,19
1555570993.04886,-62,8,19
1555570993.08012,-62,8,19
1555570993.11137,-62,8,19
1555570993.14262,-62,8,19
1555570993.17387,-62,8,19
1555570993.20512,-62,8,19
1555570993.23637,-62,8,19
1555570993.26762,-62,8,19
1555570993.29888,-62,8,19
1555570993.33013,-62,8,19
1555570993.36138,-62,8,19
1555570993.39263,-62,8,19
1555570993.42388,-62,7,19
1555570993.45513,-62,8,19
1555570993.48638,-62,8,19
1555570993.51764,-62,7,19
1555570993.54889,-62,8,19
1555570993.58014,-62,7,19
1555570993.61139,-62,8,19
1555570993.64264,-62,8,19
1555570993.67389,-62,8,19
1555570993.70514,-62,8,19
1555570993.7364,-62,8,19
1555570993.76765,-62,8,19
1555570993.7989,-62,8,19
1555570993.83015,-62,8,19
1555570993.8614,-62,8,19
1555570993.89265,-62,8,19
1555570993.9239,-62,8,19
1555570993.95516,-62,8,19
1555570993.98641,-62,8,19
1555570994.01766,-62,8,19
1555570994.04891,-62,8,19
1555570994.08016,-62,8,19
1555570994.11141,-62,8,19
1555570994.14266,-62,8,19
1555570994.17392,-62,8,19
1555570994.20517,-62,8,19
1555570994.23642,-62,8,19
1555570994.26767,-62,8,19
1555570994.29892,-62,7,19
1555570994.33017,-62,8,19
1555570994.36143,-62,8,19
1555570994.39268,-62,8,19
1555570994.42393,-62,8,19
1555570994.45518,-62,8,19
1555570994.48643,-62,8,19
1555570994.51768,-62,8,19
1555570994.54893,-62,8,19
1555570994.58019,-62,8,19
1555570994.61144,-62,8,19
1555570994.64269,-62,8,19
1555570994.67394,-62,8,19
1555570994.70519,-62,8,19
1555570994.73644,-62,8,19
1555570994.76769,-62,8,19
1555570994.79895,-62,8,19
1555570994.8302,-62,8,19
1555570994.86145,-62,8,19
1555570994.8927,-62,8,19
1555570994.92395,-62,8,19
1555570994.9552,-62,8,19
1555570994.98645,-62,8,19
1555570995.01771,-62,8,19
1555570995.04896,-62,8,20
1555570995.08021,-62,8,19
1555570995.11146,-62,8,19
1555570995.14271,-62,8,19
1555570995.17396,-62,8,19
1555570995.20521,-62,8,19
1555570995.23647,-62,8,19
1555570995.26772,-62,8,19
1555570995.29897,-62,8,19
1555570995.33022,-62,8,19
1555570995.36147,-62,8,19
1555570995.39272,-62,8,19
1555570995.42397,-62,8,19
1555570995.45523,-62,8,19
1555570995.48648,-62,8,19
1555570995.51773,-62,8,19
1555570995.54898,-62,8,19
1555570995.58023,-62,8,19
1555570995.61148,-62,8,19
1555570995.64273,-62,8,19
1555570995.67399,-62,8,19
1555570995.70524,-62,8,19
1555570995.73649,-62,8,19
1555570995.76774,-62,8,19
1555570995.79899,-62,8,19
1555570995.83024,-62,8,19
1555570995.86149,-62,8,19
1555570995.89275,-62,7,19
1555570995.924,-62,8,19
1555570995.95525,-62,8,19
1555570995.9865,-62,7,19
1555570996.01775,-62,8,19
1555570996.049,-62,8,19
1555570996.08025,-62,8,19
1555570996.11151,-62,8,20
1555570996.14276,-62,8,19
1555570996.17401,-62,8,19
1555570996.20526,-62,8,19
1555570996.23651,-62,8,19
1555570996.26776,-62,8,19
1555570996.29901,-62,8,19
1555570996.33027,-62,8,19
1555570996.36152,-62,8,19
1555570996.39277,-62,8,19
1555570996.42402,-62,8,19
1555570996.45527,-62,8,19
1555570996.48652,-62,8,19
1555570996.51777,-62,8,19
1555570996.54903,-62,8,19
1555570996.58028,-62,8,19
1555570996.61153,-62,8,19
1555570996.64278,-62,8,19
1555570996.67403,-62,8,19
1555570996.70528,-62,8,19
1555570996.73654,-62,8,19
1555570996.76779,-62,8,19
1555570996.79904,-62,8,19
1555570996.83029,-62,8,19
1555570996.86154,-63,8,19
1555570996.89279,-62,8,19
1555570996.92404,-62,8,19
1555570996.9553,-62,8,19
1555570996.98655,-62,8,19
1555570997.04905,-62,8,19
1555570997.0178,-62,8,19
1555570997.0803,-62,8,19
1555570997.11155,-62,8,19
1555570997.1428,-62,8,19
1555570997.17406,-62,8,19
1555570997.20531,-62,8,19
1555570997.23656,-62,8,19
1555570997.26781,-62,8,19
1555570997.29906,-62,8,19
1555570997.33031,-62,8,19
1555570997.36156,-62,8,19
1555570997.39282,-62,8,19
1555570997.42407,-62,8,19
1555570997.45532,-62,8,19
1555570997.48657,-62,8,19
1555570997.51782,-62,8,19
1555570997.54907,-62,8,19
1555570997.58032,-62,8,19
1555570997.61158,-62,8,19
1555570997.64283,-62,8,19
1555570997.67408,-62,8,19
1555570997.70533,-62,8,19
1555570997.73658,-62,8,20
1555570997.76783,-62,8,19
1555570997.79908,-62,8,19
1555570997.83034,-62,8,19
1555570997.86159,-62,8,19
1555570997.89284,-62,8,19
1555570997.92409,-62,8,19
1555570997.95534,-62,8,19
1555570997.98659,-62,8,19
1555570998.01784,-62,8,19
1555570998.0491,-62,8,19
1555570998.08035,-62,8,19
1555570998.1116,-62,8,19
1555570998.14285,-62,8,19
1555570998.1741,-62,8,19
1555570998.20535,-62,8,19
1555570998.2366,-62,8,19
1555570998.26786,-62,8,19
1555570998.29911,-62,8,19
1555570998.33036,-62,8,19
1555570998.36161,-62,8,19
1555570998.39286,-62,8,19
1555570998.42411,-62,8,19
1555570998.45536,-62,8,19
1555570998.48662,-62,8,19
1555570998.51787,-62,8,19
1555570998.54912,-62,8,19
1555570998.58037,-62,8,19
1555570998.61162,-62,8,19
1555570998.64287,-62,8,19
1555570998.67412,-62,8,19
1555570998.70538,-62,8,19
1555570998.73663,-62,8,19
1555570998.76788,-62,8,19
1555570998.79913,-62,8,20
1555570998.83038,-62,8,19
1555570998.86163,-62,8,19
1555570998.89288,-62,8,19
1555570998.92414,-62,8,19
1555570998.95539,-62,8,19
1555570998.98664,-62,8,19
1555570999.01789,-62,8,19
1555570999.04914,-62,8,19
1555570999.08039,-62,8,19
1555570999.11164,-62,8,19
1555570999.1429,-62,8,19
1555570999.17415,-62,8,19
1555570999.2054,-62,8,19
1555570999.23665,-62,8,19
1555570999.2679,-62,8,19
1555570999.29915,-62,8,19
1555570999.33041,-62,8,19
1555570999.36166,-62,8,19
1555570999.39291,-62,8,19
1555570999.42416,-62,8,19
1555570999.45541,-62,8,19
1555570999.48666,-62,8,20
1555570999.51791,-62,8,19
1555570999.54917,-62,7,19
1555570999.58042,-62,8,19
1555570999.61167,-62,8,19
1555570999.64292,-62,8,19
1555570999.67417,-62,8,19
1555570999.70542,-62,8,20
1555570999.73667,-62,8,19
1555570999.76793,-62,8,19
1555570999.79918,-62,8,19
1555570999.83043,-62,8,19
1555570999.86168,-62,8,19
1555570999.89293,-62,8,19
1555570999.92418,-62,8,19
1555570999.95543,-62,8,20
1555570999.98669,-62,8,19
1555571000.01794,-62,8,19
1555571000.04919,-62,8,19
1555571000.08044,-62,8,19
1555571000.11169,-62,8,19
1555571000.14294,-62,8,19
1555571000.17419,-62,8,18
1555571000.20545,-62,8,19
1555571000.2367,-62,8,19
1555571000.26795,-63,7,19
1555571000.2992,-63,7,19
1555571000.33045,-62,8,20
1555571000.3617,-62,8,20
1555571000.39295,-62,8,19
1555571000.42421,-62,8,19
1555571000.45546,-62,8,19
1555571000.48671,-62,8,19
1555571000.51796,-62,8,19
1555571000.54921,-62,8,19
1555571000.58046,-62,8,19
1555571000.61171,-62,8,19
1555571000.64297,-62,8,19
1555571000.67422,-62,8,19
1555571000.70547,-62,8,19
1555571000.73672,-62,7,19
1555571000.76797,-62,7,19
1555571000.79922,-62,8,19
1555571000.83047,-62,8,19
1555571000.86173,-62,8,19
1555571000.89298,-62,8,19
1555571000.92423,-62,8,19
1555571000.95548,-62,8,20
1555571000.98673,-62,7,19
1555571001.01798,-62,8,19
1555571001.04923,-62,8,19
1555571001.08049,-62,7,19
1555571001.11174,-62,7,20
1555571001.14299,-62,8,19
1555571001.17424,-62,7,19
1555571001.20549,-62,8,19
1555571001.23674,-62,8,19
1555571001.26799,-62,7,19
1555571001.29925,-62,8,19
1555571001.3305,-62,7,19
1555571001.36175,-62,7,19
1555571001.393,-62,8,20
1555571001.42425,-62,8,19
1555571001.4555,-62,8,19
1555571001.48675,-62,8,19
1555571001.51801,-62,7,19
1555571001.54926,-62,7,20
1555571001.58051,-62,8,20
1555571001.61176,-62,8,19
1555571001.64301,-62,8,19
1555571001.67426,-63,8,19
1555571001.70552,-62,8,19
1555571001.73677,-62,7,19
1555571001.76802,-62,7,19
1555571001.79927,-62,7,20
1555571001.83052,-62,8,19
1555571001.86177,-63,7,19
1555571001.89302,-62,8,19
1555571001.92428,-62,8,20
1555571001.95553,-62,7,19
1555571001.98678,-62,7,20
1555571002.01803,-62,8,20
1555571002.04928,-62,8,20
1555571002.08053,-62,7,19
1555571002.11178,-62,8,19
1555571002.14304,-61,8,19
1555571002.17429,-62,7,19
1555571002.20554,-62,8,19
1555571002.23679,-62,8,20
1555571002.26804,-62,7,20
1555571002.29929,-62,8,19
1555571002.33054,-62,8,19
1555571002.3618,-62,8,19
1555571002.39305,-62,8,20
1555571002.4243,-62,8,20
1555571002.45555,-62,7,19
1555571002.4868,-62,8,19
1555571002.51805,-62,8,19
1555571002.5493,-62,8,19
1555571002.58056,-62,8,20
1555571002.61181,-62,8,19
1555571002.64306,-62,8,19
1555571002.67431,-63,7,19
1555571002.70556,-62,8,19
1555571002.73681,-62,8,19
1555571002.76806,-62,7,19
1555571002.79932,-62,7,19
1555571002.83057,-62,8,19
1555571002.86182,-62,8,20
1555571002.89307,-62,8,19
1555571002.92432,-62,7,19
1555571002.95557,-62,8,19
1555571002.98682,-62,8,19
1555571003.01808,-62,7,19
1555571003.04933,-62,8,20
1555571003.08058,-62,8,19
1555571003.11183,-62,7,19
1555571003.14308,-63,8,19
1555571003.17433,-62,7,20
1555571003.20558,-62,8,20
1555571003.23684,-62,8,19
1555571003.26809,-62,8,19
1555571003.29934,-63,8,19
1555571003.33059,-62,8,20
1555571003.36184,-62,8,20
1555571003.39309,-62,8,19
1555571003.42434,-62,7,19
1555571003.4556,-62,7,20
1555571003.48685,-62,8,19
1555571003.5181,-62,8,19
1555571003.54935,-62,8,19
1555571003.5806,-62,7,19
1555571003.61185,-62,8,20
1555571003.6431,-61,7,20
1555571003.67436,-62,8,19
1555571003.70561,-62,8,19
1555571003.73686,-62,8,19
1555571003.76811,-62,8,20
1555571003.79936,-62,7,20
1555571003.83061,-62,8,19
1555571003.86186,-62,8,19
1555571003.89312,-62,8,19
1555571003.92437,-62,8,19
1555571003.95562,-62,7,19
1555571003.98687,-62,8,19
1555571004.01812,-62,8,19
1555571004.04937,-62,7,20
1555571004.08063,-62,8,20
1555571004.11188,-62,8,19
1555571004.14313,-62,8,19
1555571004.17438,-62,8,19
1555571004.20563,-63,8,19
1555571004.23688,-62,7,19
1555571004.26813,-62,8,19
1555571004.29939,-62,8,19
1555571004.33064,-62,8,19
1555571004.36189,-62,8,19
1555571004.39314,-62,8,20
1555571004.42439,-62,8,19
1555571004.45564,-62,8,19
1555571004.48689,-62,7,19
1555571004.51815,-62,8,19
1555571004.5494,-62,8,19
1555571004.58065,-62,8,19
1555571004.6119,-62,8,20
1555571004.64315,-62,8,19
1555571004.6744,-62,8,19
1555571004.70565,-62,8,19
1555571004.73691,-62,8,19
1555571004.76816,-62,8,19
1555571004.79941,-62,8,19
1555571004.83066,-62,8,19
1555571004.86191,-62,8,19
1555571004.89316,-62,8,19
1555571004.92441,-62,8,19
1555571004.95567,-62,8,19
1555571004.98692,-62,8,19
1555571005.01817,-62,8,19
1555571005.04942,-62,8,19
1555571005.08067,-62,8,19
1555571005.11192,-62,8,19
1555571005.14317,-62,8,19
1555571005.17443,-62,8,19
1555571005.20568,-62,8,19
1555571005.23693,-61,8,19
1555571005.26818,-62,8,19
1555571005.29943,-62,8,19
1555571005.33068,-62,8,20
1555571005.36193,-62,8,20
1555571005.39319,-62,8,19
1555571005.42444,-62,8,19
1555571005.45569,-62,8,19
1555571005.48694,-62,8,19
1555571005.51819,-62,8,20
1555571005.54944,-62,8,19
1555571005.58069,-62,8,19
1555571005.61195,-62,8,20
1555571005.6432,-62,8,19
1555571005.67445,-62,8,19
1555571005.7057,-62,8,19
1555571005.73695,-62,8,19
1555571005.7682,-62,8,19
1555571005.79945,-62,8,19
1555571005.83071,-62,8,19
1555571005.86196,-62,8,19
1555571005.89321,-62,8,19
1555571005.92446,-62,8,19
1555571005.95571,-62,8,19
1555571005.98696,-62,8,19
1555571006.01821,-62,8,19
1555571006.04947,-62,8,19
1555571006.08072,-62,7,19
1555571006.11197,-62,8,19
1555571006.14322,-62,8,19
1555571006.17447,-62,8,19
1555571006.20572,-62,8,20
1555571006.23697,-62,8,20
1555571006.26823,-62,8,19
1555571006.29948,-62,8,19
1555571006.33073,-62,8,19
1555571006.36198,-62,8,19
1555571006.39323,-62,8,19
1555571006.42448,-62,8,19
1555571006.45573,-62,8,19
1555571006.48699,-62,8,20
1555571006.51824,-62,8,19
1555571006.54949,-62,8,19
1555571006.58074,-62,8,19
1555571006.61199,-62,8,19
1555571006.64324,-62,8,19
1555571006.67449,-62,8,19
1555571006.70575,-62,8,19
1555571006.737,-62,8,20
1555571006.76825,-62,8,19
1555571006.7995,-62,8,19
1555571006.83075,-62,8,19
1555571006.862,-62,8,19
1555571006.89326,-62,8,19
1555571006.92451,-62,8,19
1555571006.95576,-62,8,19
1555571006.98701,-62,8,19
1555571007.01826,-62,8,20
1555571007.04951,-62,8,19
1555571007.08076,-62,8,19
1555571007.11202,-62,8,19
1555571007.14327,-62,8,20
1555571007.17452,-62,8,19
1555571007.20577,-62,8,19
1555571007.23702,-62,8,19
1555571007.26827,-62,8,19
1555571007.29952,-62,8,19
1555571007.33078,-62,8,19
1555571007.36203,-62,8,19
1555571007.39328,-62,8,19
1555571007.42453,-62,8,19
1555571007.45578,-62,8,19
1555571007.48703,-62,8,20
1555571007.51828,-62,8,19
1555571007.54954,-62,8,19
1555571007.58079,-62,8,19
1555571007.61204,-62,8,19
1555571007.64329,-62,8,19
1555571007.67454,-62,8,19
1555571007.70579,-62,8,19
1555571007.73704,-62,8,19
1555571007.7683,-62,8,19
1555571007.79955,-62,8,19
1555571007.8308,-62,8,19
1555571007.86205,-62,8,20
1555571007.8933,-62,8,19
1555571007.92455,-62,8,19
1555571007.9558,-62,8,20
1555571007.98706,-62,8,19
1555571008.01831,-62,8,19
1555571008.04956,-62,8,20
1555571008.08081,-62,8,19
1555571008.11206,-62,8,19
1555571008.14331,-62,8,19
1555571008.17456,-62,8,19
1555571008.20582,-62,8,19
1555571008.23707,-62,8,19
1555571008.26832,-62,8,19
1555571008.29957,-62,8,19
1555571008.33082,-62,8,19
1555571008.36207,-62,8,19
1555571008.39332,-62,8,19
1555571008.42458,-62,8,19
1555571008.45583,-62,8,19
1555571008.48708,-62,8,19
1555571008.51833,-62,8,19
1555571008.54958,-62,8,19
1555571008.58083,-62,8,19
1555571008.61208,-62,8,20
1555571008.64334,-62,8,20
1555571008.67459,-62,8,20
1555571008.70584,-62,8,20
1555571008.73709,-62,8,19
1555571008.76834,-62,8,19
1555571008.79959,-62,8,19
1555571008.83084,-62,8,20
1555571008.8621,-62,8,19
1555571008.89335,-62,8,20
1555571008.9246,-62,8,20
1555571008.95585,-62,8,19
1555571008.9871,-62,8,20
1555571009.01835,-62,8,20
1555571009.04961,-62,8,19
1555571009.08086,-62,8,19
1555571009.11211,-62,8,19
1555571009.14336,-62,8,19
1555571009.17461,-62,8,19
1555571009.20586,-62,8,19
1555571009.23711,-62,8,19
1555571009.26837,-62,8,19
1555571009.29962,-62,8,19
1555571009.33087,-62,8,19
1555571009.36212,-62,8,19
1555571009.39337,-62,8,19
1555571009.42462,-62,8,19
1555571009.45587,-62,8,19
1555571009.48713,-62,8,19
1555571009.51838,-62,8,19
1555571009.54963,-62,8,19
1555571009.58088,-62,8,19
1555571009.61213,-62,8,20
1555571009.64338,-62,8,19
1555571009.67463,-62,8,19
1555571009.70589,-62,8,20
1555571009.73714,-62,8,19
1555571009.76839,-62,8,19
1555571009.79964,-62,8,19
1555571009.83089,-62,8,19
1555571009.86214,-62,8,20
1555571009.89339,-62,8,19
1555571009.92465,-62,8,19
1555571009.9559,-62,8,19
1555571009.98715,-62,8,19
1555571010.0184,-62,8,19
1555571010.04965,-62,8,19
1555571010.0809,-62,8,19
1555571010.11215,-62,8,19
1555571010.14341,-62,8,19
1555571010.17466,-62,8,19
1555571010.20591,-62,8,19
1555571010.23716,-62,8,20
1555571010.26841,-62,8,19
1555571010.29966,-62,8,19
1555571010.33091,-62,8,19
1555571010.36217,-62,8,19
1555571010.39342,-62,8,19
1555571010.42467,-62,8,19
1555571010.45592,-62,8,19
1555571010.48717,-62,8,19
1555571010.51842,-62,8,19
1555571010.54967,-62,8,19
1555571010.58093,-62,8,20
1555571010.61218,-62,8,19
1555571010.64343,-62,8,19
1555571010.67468,-62,8,19
1555571010.70593,-62,8,19
1555571010.73718,-62,8,19
1555571010.76843,-62,8,20
1555571010.79969,-62,8,19
1555571010.83094,-62,8,19
1555571010.86219,-62,8,19
1555571010.89344,-62,8,19
1555571010.92469,-62,8,19
1555571010.95594,-62,8,19
1555571010.98719,-62,8,19
1555571011.01845,-62,8,19
1555571011.0497,-62,8,20
1555571011.08095,-62,8,19
1555571011.1122,-62,8,19
1555571011.14345,-62,8,19
1555571011.1747,-62,8,19
1555571011.20595,-62,8,19
1555571011.23721,-62,8,19
1555571011.26846,-62,8,19
1555571011.29971,-62,8,19
1555571011.33096,-62,8,19
1555571011.36221,-62,8,19
1555571011.39346,-62,8,19
1555571011.42472,-62,8,19
1555571011.45597,-62,8,20
1555571011.48722,-62,8,19
1555571011.51847,-62,8,19
1555571011.54972,-62,8,19
1555571011.58097,-62,8,20
1555571011.61222,-62,8,19
1555571011.64348,-62,8,19
1555571011.67473,-61,8,20
1555571011.70598,-62,8,19
1555571011.73723,-62,8,19
1555571011.76848,-62,8,19
1555571011.79973,-62,8,19
1555571011.83098,-62,8,19
1555571011.86224,-62,8,19
1555571011.89349,-62,8,19
1555571011.92474,-62,8,19
1555571011.95599,-62,8,19
1555571011.98724,-62,8,19
1555571012.01849,-62,8,19
1555571012.04974,-62,8,19
1555571012.081,-62,8,20
1555571012.11225,-62,8,19
1555571012.1435,-62,8,19
1555571012.17475,-62,8,19
1555571012.206,-62,8,20
1555571012.23725,-62,8,19
1555571012.2685,-62,8,19
1555571012.29976,-62,8,20
1555571012.33101,-62,8,19
1555571012.36226,-62,8,19
1555571012.39351,-62,8,20
1555571012.42476,-62,8,19
1555571012.45601,-62,8,19
1555571012.48726,-62,8,19
1555571012.51852,-62,8,19
1555571012.54977,-62,8,19
1555571012.58102,-62,8,20
1555571012.61227,-62,8,19
1555571012.64352,-62,8,19
1555571012.67477,-62,8,19
1555571012.70602,-62,8,19
1555571012.73728,-62,8,19
1555571012.76853,-62,8,19
1555571012.79978,-62,8,19
1555571012.83103,-62,8,19
1555571012.86228,-62,8,19
1555571012.89353,-62,8,19
1555571012.92478,-62,8,20
1555571012.95604,-62,8,19
1555571012.98729,-62,8,20
1555571013.01854,-62,8,19
1555571013.04979,-62,8,19
1555571013.08104,-62,8,19
1555571013.11229,-62,8,20
1555571013.14354,-62,8,20
1555571013.1748,-62,8,19
1555571013.20605,-62,8,19
1555571013.2373,-62,8,19
1555571013.26855,-62,8,19
1555571013.2998,-62,8,19
1555571013.33105,-62,8,19
1555571013.3623,-62,8,19
1555571013.39356,-62,8,19
1555571013.42481,-62,8,20
1555571013.45606,-62,8,20
1555571013.48731,-62,8,19
1555571013.51856,-62,8,19
1555571013.54981,-62,8,19
1555571013.58106,-62,8,20
1555571013.61232,-62,8,20
1555571013.64357,-62,8,19
1555571013.67482,-62,8,19
1555571013.70607,-62,8,19
1555571013.73732,-62,8,19
1555571013.76857,-62,8,19
1555571013.79982,-62,8,19
1555571013.83108,-62,8,19
1555571013.86233,-62,8,19
1555571013.89358,-62,8,19
1555571013.92483,-62,8,19
1555571013.95608,-62,8,19
1555571013.98733,-62,8,19
1555571014.01859,-62,8,19
1555571014.04984,-62,8,19
1555571014.08109,-62,8,19
1555571014.11234,-62,8,19
1555571014.14359,-62,8,20
1555571014.17484,-62,8,19
1555571014.20609,-62,8,19
1555571014.23735,-62,8,19
1555571014.2686,-62,8,19
1555571014.29985,-62,8,19
1555571014.3311,-62,8,20
1555571014.36235,-62,8,19
1555571014.3936,-62,8,19
1555571014.42485,-62,8,19
1555571014.45611,-62,8,19
1555571014.48736,-62,8,19
1555571014.51861,-62,8,19
1555571014.54986,-62,8,19
1555571014.58111,-62,8,19
1555571014.61236,-62,8,20
1555571014.64361,-62,8,19
1555571014.67487,-62,8,20
1555571014.70612,-62,8,19
1555571014.73737,-62,8,19
1555571014.76862,-62,8,19
1555571014.79987,-62,8,19
1555571014.83112,-62,8,19
1555571014.86237,-62,8,19
1555571014.89363,-62,8,19
1555571014.92488,-62,8,19
1555571014.95613,-62,8,19
1555571014.98738,-62,8,19
1555571015.01863,-62,8,19
1555571015.04988,-62,8,20
1555571015.08113,-62,8,19
1555571015.11239,-62,8,19
1555571015.14364,-62,8,19
1555571015.17489,-62,8,19
1555571015.20614,-62,8,19
1555571015.23739,-62,8,20
1555571015.26864,-62,8,20
1555571015.29989,-62,8,19
1555571015.33115,-62,8,20
1555571015.3624,-62,8,19
1555571015.39365,-62,8,19
1555571015.4249,-62,8,19
1555571015.45615,-62,8,19
1555571015.4874,-62,8,19
1555571015.51865,-62,8,19
1555571015.54991,-62,8,19
1555571015.58116,-62,8,19
1555571015.61241,-62,8,19
1555571015.64366,-62,8,19
1555571015.67491,-62,8,19
1555571015.70616,-62,8,19
1555571015.73741,-62,8,19
1555571015.76867,-62,8,19
1555571015.79992,-62,8,19
1555571015.83117,-62,8,19
1555571015.86242,-62,8,19
1555571015.89367,-62,8,19
1555571015.92492,-62,8,20
1555571015.95617,-62,8,20
1555571015.98743,-63,8,19
1555571016.01868,-62,8,19
1555571016.04993,-62,8,19
1555571016.08118,-62,8,19
1555571016.11243,-62,8,20
1555571016.14368,-62,8,20
1555571016.17493,-62,8,19
1555571016.20619,-62,8,19
1555571016.23744,-62,8,20
1555571016.26869,-62,8,19
1555571016.29994,-62,8,19
1555571016.33119,-62,8,19
1555571016.36244,-62,8,19
1555571016.3937,-62,8,19
1555571016.42495,-62,8,19
1555571016.4562,-62,8,19
1555571016.48745,-62,8,19
1555571016.5187,-62,8,20
1555571016.54995,-62,8,19
1555571016.5812,-62,8,19
1555571016.61246,-62,8,19
1555571016.64371,-62,8,19
1555571016.67496,-62,8,19
1555571016.70621,-62,8,19
1555571016.73746,-62,8,19
1555571016.76871,-62,8,19
1555571016.79996,-62,8,20
1555571016.83122,-62,8,20
1555571016.86247,-62,8,19
1555571016.89372,-62,8,19
1555571016.92497,-62,8,19
1555571016.95622,-62,8,19
1555571016.98747,-62,8,19
1555571017.01872,-62,8,20
1555571017.04998,-62,8,19
1555571017.08123,-62,8,19
1555571017.11248,-62,8,19
1555571017.14373,-62,8,19
1555571017.17498,-62,8,19
1555571017.20623,-62,8,19
1555571017.23748,-62,8,19
1555571017.26874,-62,8,19
1555571017.29999,-62,8,19
1555571017.33124,-62,8,19
1555571017.36249,-62,8,20
1555571017.39374,-62,8,19
1555571017.42499,-62,8,19
1555571017.45624,-62,8,20
1555571017.4875,-62,8,19
1555571017.51875,-62,8,19
1555571017.55,-62,8,19
1555571017.58125,-62,8,19
1555571017.6125,-62,8,19
1555571017.64375,-62,8,19
1555571017.675,-62,8,19
1555571017.70626,-62,8,19
1555571017.73751,-62,8,19
1555571017.76876,-63,8,19
1555571017.80001,-62,8,19
1555571017.83126,-62,8,20
1555571017.86251,-62,8,19
1555571017.89376,-62,8,19
1555571017.92502,-62,8,19
1555571017.95627,-62,8,19
1555571017.98752,-62,8,19
1555571018.01877,-62,8,19
1555571018.05002,-62,8,19
1555571018.08127,-62,8,20
1555571018.11252,-62,8,20
1555571018.14378,-62,8,19
1555571018.17503,-62,8,19
1555571018.20628,-62,8,19
1555571018.23753,-62,8,19
1555571018.26878,-62,8,19
1555571018.30003,-62,8,19
1555571018.33128,-62,8,19
1555571018.36254,-62,8,19
1555571018.39379,-62,8,19
1555571018.42504,-62,8,19
1555571018.45629,-62,8,19
1555571018.48754,-62,8,19
1555571018.51879,-62,8,19
1555571018.55005,-62,8,19
1555571018.5813,-62,8,19
1555571018.61255,-62,8,20
1555571018.6438,-62,8,20
1555571018.67505,-62,8,19
1555571018.7063,-62,8,19
1555571018.73755,-62,8,19
1555571018.76881,-62,8,19
1555571018.80006,-62,8,19
1555571018.83131,-62,8,20
1555571018.86256,-62,8,19
1555571018.89381,-62,8,19
1555571018.92506,-62,8,19
1555571018.95631,-61,8,19
1555571018.98757,-62,8,19
1555571019.01882,-61,8,19
1555571019.05007,-62,8,19
1555571019.08132,-62,8,19
1555571019.11257,-62,8,20
1555571019.14382,-62,8,20
1555571019.17507,-62,8,19
1555571019.20633,-62,8,19
1555571019.23758,-62,8,19
1555571019.26883,-62,8,19
1555571019.30008,-62,8,19
1555571019.33133,-62,8,19
1555571019.36258,-62,8,19
1555571019.39383,-62,8,19
1555571019.42509,-62,8,20
1555571019.45634,-62,8,19
1555571019.48759,-62,8,20
1555571019.51884,-62,8,19
1555571019.55009,-62,8,19
1555571019.58134,-62,8,20
1555571019.61259,-62,8,19
1555571019.64385,-62,8,19
1555571019.6751,-62,8,19
1555571019.70635,-62,8,19
1555571019.7376,-62,8,19
1555571019.76885,-62,8,19
1555571019.8001,-62,8,19
1555571019.83135,-62,8,19
1555571019.86261,-62,8,19
1555571019.89386,-62,8,19
1555571019.92511,-62,8,19
1555571019.95636,-62,8,19
1555571019.98761,-62,8,19
1555571020.01886,-62,8,19
1555571020.05011,-62,8,19
1555571020.08137,-62,8,19
1555571020.11262,-62,8,19
1555571020.14387,-62,8,19
1555571020.17512,-62,8,19
1555571020.20637,-62,8,19
1555571020.23762,-62,8,19
1555571020.26887,-62,8,19
1555571020.30013,-62,8,19
1555571020.33138,-62,8,19
1555571020.36263,-62,8,20
1555571020.39388,-63,8,19
1555571020.42513,-62,8,19
1555571020.45638,-62,8,19
1555571020.48763,-62,8,19
1555571020.51889,-62,8,19
1555571020.55014,-62,8,20
