TS_Machine,ax,ay,az
1555579673.95197,-31,31,27
1555579673.98322,-37,35,42
1555579674.01447,-38,36,41
1555579674.04572,-44,36,31
1555579674.07697,-44,34,27
1555579674.10822,-45,35,23
1555579674.13947,-42,38,28
1555579674.17073,-39,40,30
1555579674.20198,-41,43,31
1555579674.26448,-44,45,28
1555579674.29573,-43,45,28
1555579674.23323,-44,44,31
1555579674.32698,-41,45,29
1555579674.35823,-41,45,29
1555579674.38949,-41,40,30
1555579674.42074,-42,40,29
1555579674.45199,-42,38,29
1555579674.48324,-42,37,28
1555579674.51449,-42,38,30
1555579674.54574,-43,39,29
1555579674.57699,-45,39,28
1555579674.60825,-46,39,27
1555579674.6395,-46,38,26
1555579674.67075,-48,39,25
1555579674.702,-48,38,24
1555579674.73325,-44,37,26
1555579674.7645,-42,37,28
1555579674.79575,-44,38,28
1555579674.82701,-45,39,28
1555579674.85826,-45,39,26
1555579674.88951,-45,39,26
1555579674.92076,-43,38,28
1555579674.95201,-43,40,29
1555579674.98326,-43,40,28
1555579675.01451,-46,39,27
1555579675.04577,-46,38,27
1555579675.07702,-47,39,26
1555579675.10827,-47,39,27
1555579675.13952,-46,39,26
1555579675.17077,-46,39,26
1555579675.20202,-43,39,26
1555579675.23327,-42,39,26
1555579675.26453,-44,40,27
1555579675.29578,-44,39,27
1555579675.32703,-44,38,26
1555579675.35828,-44,39,26
1555579675.38953,-44,40,27
1555579675.42078,-45,40,28
1555579675.45203,-44,39,28
1555579675.48329,-44,39,28
1555579675.51454,-44,39,28
1555579675.54579,-44,39,27
1555579675.57704,-45,40,27
1555579675.60829,-45,40,27
1555579675.63954,-44,40,27
1555579675.67079,-43,41,27
1555579675.70205,-42,41,28
1555579675.7333,-42,40,29
1555579675.76455,-42,40,28
1555579675.7958,-44,39,28
1555579675.82705,-45,39,27
1555579675.8583,-45,39,27
1555579675.88955,-44,38,28
1555579675.92081,-44,38,28
1555579675.95206,-43,39,27
1555579675.98331,-43,40,27
1555579676.01456,-44,40,28
1555579676.04581,-43,41,28
1555579676.07706,-44,40,28
1555579676.10831,-44,41,28
1555579676.13957,-44,40,28
1555579676.17082,-43,39,28
1555579676.20207,-43,39,27
1555579676.23332,-41,41,27
1555579676.26457,-40,42,27
1555579676.29582,-39,44,26
1555579676.32708,-38,45,26
1555579676.35833,-36,46,26
1555579676.38958,-36,46,25
1555579676.42083,-35,48,25
1555579676.45208,-36,49,25
1555579676.48333,-37,47,26
1555579676.51458,-37,47,26
1555579676.54584,-38,47,26
1555579676.57709,-38,46,26
1555579676.60834,-40,45,25
1555579676.63959,-40,44,25
1555579676.67084,-40,44,25
1555579676.70209,-40,45,25
1555579676.73334,-40,45,25
1555579676.7646,-39,45,25
1555579676.79585,-39,46,25
1555579676.8271,-39,46,25
1555579676.85835,-39,45,25
1555579676.8896,-39,45,24
1555579676.92085,-40,45,25
1555579676.9521,-41,45,23
1555579676.98336,-40,45,24
1555579677.01461,-40,45,24
1555579677.04586,-41,45,24
1555579677.07711,-41,45,23
1555579677.10836,-41,44,23
1555579677.13961,-42,44,24
1555579677.17086,-41,45,24
1555579677.20212,-41,45,25
1555579677.23337,-42,44,24
1555579677.26462,-42,43,24
1555579677.29587,-43,43,23
1555579677.32712,-43,43,24
1555579677.35837,-43,44,23
1555579677.38962,-43,44,23
1555579677.42088,-43,43,23
1555579677.45213,-42,43,24
1555579677.48338,-42,43,23
1555579677.51463,-43,42,24
1555579677.54588,-43,43,24
1555579677.57713,-44,42,24
1555579677.60838,-44,42,24
1555579677.63964,-44,41,24
1555579677.67089,-44,41,23
1555579677.70214,-45,41,23
1555579677.73339,-45,41,23
1555579677.76464,-44,42,23
1555579677.79589,-44,42,23
1555579677.82714,-44,42,23
1555579677.8584,-45,42,24
1555579677.88965,-44,42,23
1555579677.9209,-44,42,23
1555579677.95215,-45,42,23
1555579677.9834,-45,42,23
1555579678.01465,-44,42,23
1555579678.0459,-45,42,23
1555579678.07716,-45,41,23
1555579678.10841,-45,41,23
1555579678.13966,-44,42,23
1555579678.17091,-44,42,24
1555579678.20216,-44,42,23
1555579678.23341,-44,42,24
1555579678.26466,-44,42,24
1555579678.29592,-44,42,24
1555579678.32717,-44,42,24
1555579678.35842,-44,42,23
1555579678.38967,-43,42,24
1555579678.42092,-43,42,24
1555579678.45217,-44,43,24
1555579678.48342,-43,43,23
1555579678.51468,-44,43,24
1555579678.54593,-43,43,24
1555579678.57718,-43,42,24
1555579678.60843,-43,43,23
1555579678.63968,-43,43,23
1555579678.67093,-43,43,24
1555579678.70219,-43,43,24
1555579678.73344,-42,43,24
1555579678.76469,-42,43,24
1555579678.79594,-43,43,23
1555579678.82719,-42,44,23
1555579678.85844,-43,44,23
1555579678.88969,-43,43,23
1555579678.92095,-42,44,23
1555579678.9522,-42,44,23
1555579678.98345,-42,44,24
1555579679.0147,-42,44,24
1555579679.04595,-42,44,24
1555579679.0772,-42,44,23
1555579679.10845,-42,44,23
1555579679.13971,-41,44,24
1555579679.17096,-42,44,23
1555579679.20221,-41,44,23
1555579679.23346,-41,44,23
1555579679.26471,-41,44,23
1555579679.29596,-41,44,24
1555579679.32721,-41,44,24
1555579679.35847,-41,45,23
1555579679.38972,-41,45,24
1555579679.42097,-41,45,24
1555579679.45222,-41,45,24
1555579679.48347,-41,45,23
1555579679.51472,-40,45,23
1555579679.54597,-41,45,23
1555579679.57723,-41,45,23
1555579679.60848,-40,45,23
1555579679.63973,-40,45,23
1555579679.67098,-40,45,24
1555579679.70223,-40,45,23
1555579679.73348,-40,45,23
1555579679.76473,-40,45,23
1555579679.79599,-40,45,23
1555579679.82724,-40,45,23
1555579679.85849,-40,45,24
1555579679.88974,-40,45,24
1555579679.92099,-40,45,23
1555579679.95224,-40,45,23
1555579679.98349,-41,45,23
1555579680.01475,-41,45,23
1555579680.046,-40,45,24
1555579680.07725,-41,45,23
1555579680.1085,-41,45,24
1555579680.13975,-41,45,23
1555579680.171,-40,45,24
1555579680.20225,-41,44,23
1555579680.23351,-41,45,23
1555579680.26476,-41,45,23
1555579680.29601,-41,45,23
1555579680.32726,-41,45,23
1555579680.35851,-41,44,23
1555579680.38976,-41,44,23
1555579680.42101,-42,45,23
1555579680.45227,-42,45,23
1555579680.48352,-41,44,23
1555579680.51477,-41,44,23
1555579680.54602,-41,44,23
1555579680.57727,-42,44,23
1555579680.60852,-41,45,23
1555579680.63977,-41,45,23
1555579680.67103,-42,45,23
1555579680.70228,-42,44,23
1555579680.73353,-42,44,23
1555579680.76478,-41,44,23
1555579680.79603,-41,44,23
1555579680.82728,-41,44,24
1555579680.85853,-41,44,24
1555579680.88979,-41,44,24
1555579680.92104,-41,44,23
1555579680.95229,-41,44,23
1555579680.98354,-42,44,24
1555579681.01479,-41,44,24
1555579681.04604,-41,45,24
1555579681.0773,-42,45,24
1555579681.10855,-42,44,24
1555579681.1398,-42,44,24
1555579681.17105,-41,44,23
1555579681.2023,-41,44,23
1555579681.23355,-42,44,24
1555579681.2648,-42,43,24
1555579681.29606,-42,43,23
1555579681.32731,-42,43,23
1555579681.35856,-42,44,23
1555579681.38981,-42,44,23
1555579681.42106,-41,44,23
1555579681.45231,-41,45,24
1555579681.48356,-40,45,24
1555579681.51482,-40,45,24
1555579681.54607,-40,45,24
1555579681.57732,-40,46,24
1555579681.60857,-40,46,24
1555579681.63982,-40,45,24
1555579681.67107,-40,45,24
1555579681.70232,-41,45,24
1555579681.73358,-41,45,24
1555579681.76483,-41,44,24
1555579681.79608,-41,44,24
1555579681.82733,-41,44,24
1555579681.85858,-41,44,24
1555579681.88983,-41,44,24
1555579681.92108,-41,44,24
1555579681.95234,-41,44,24
1555579681.98359,-41,44,24
1555579682.01484,-40,45,24
1555579682.04609,-41,45,24
1555579682.07734,-41,45,23
1555579682.10859,-41,45,24
1555579682.13984,-41,45,24
1555579682.1711,-41,45,24
1555579682.20235,-40,45,24
1555579682.2336,-41,44,24
1555579682.26485,-41,44,24
1555579682.2961,-41,44,23
1555579682.32735,-41,44,23
1555579682.3586,-42,44,23
1555579682.38986,-42,44,23
1555579682.42111,-41,44,23
1555579682.45236,-42,44,23
1555579682.48361,-42,44,23
1555579682.51486,-42,44,23
1555579682.54611,-42,44,23
1555579682.57736,-41,44,24
1555579682.60862,-42,44,23
1555579682.63987,-41,44,23
1555579682.67112,-42,44,23
1555579682.70237,-42,44,23
1555579682.73362,-41,44,23
1555579682.76487,-42,44,23
1555579682.79612,-42,44,23
1555579682.82738,-42,44,23
1555579682.85863,-42,44,23
1555579682.88988,-42,44,23
1555579682.92113,-42,44,23
1555579682.95238,-42,44,23
1555579682.98363,-42,44,23
1555579683.01488,-42,44,23
1555579683.04614,-42,44,23
1555579683.07739,-42,44,23
1555579683.10864,-42,44,23
1555579683.13989,-41,44,23
1555579683.17114,-41,44,23
1555579683.20239,-41,44,23
1555579683.23364,-41,45,23
1555579683.2649,-41,45,23
1555579683.29615,-41,45,23
1555579683.3274,-41,45,23
1555579683.35865,-41,45,23
1555579683.3899,-41,45,23
1555579683.42115,-41,45,23
1555579683.4524,-41,45,23
1555579683.48366,-40,45,23
1555579683.51491,-40,45,23
1555579683.54616,-40,46,23
1555579683.57741,-40,46,23
1555579683.60866,-40,45,23
1555579683.63991,-40,45,24
1555579683.67117,-40,46,23
1555579683.70242,-40,45,23
1555579683.73367,-40,46,23
1555579683.76492,-40,46,23
1555579683.79617,-40,46,24
1555579683.82742,-39,46,24
1555579683.85867,-40,46,24
1555579683.88993,-40,45,24
1555579683.92118,-40,46,23
1555579683.95243,-40,46,23
1555579683.98368,-40,46,23
1555579684.01493,-39,46,24
1555579684.04618,-39,46,23
1555579684.07743,-39,46,23
1555579684.10869,-39,46,23
1555579684.13994,-39,46,24
1555579684.17119,-39,46,24
1555579684.20244,-39,46,23
1555579684.23369,-39,46,24
1555579684.26494,-39,46,24
1555579684.29619,-39,46,24
1555579684.32745,-39,46,24
1555579684.3587,-39,46,23
1555579684.38995,-39,46,23
1555579684.4212,-39,46,23
1555579684.45245,-39,46,23
1555579684.4837,-39,46,24
1555579684.51495,-39,46,24
1555579684.54621,-40,46,23
1555579684.57746,-40,46,23
1555579684.60871,-40,46,23
1555579684.63996,-39,46,23
1555579684.67121,-39,46,23
1555579684.70246,-39,46,23
1555579684.73371,-39,46,24
1555579684.76497,-40,46,23
1555579684.79622,-40,46,23
1555579684.82747,-40,46,23
1555579684.85872,-40,46,23
1555579684.88997,-40,46,23
1555579684.92122,-39,46,23
1555579684.95247,-40,46,23
1555579684.98373,-40,46,23
1555579685.01498,-40,46,23
1555579685.04623,-40,46,23
1555579685.07748,-40,46,23
1555579685.10873,-40,46,23
1555579685.13998,-40,46,23
1555579685.17123,-40,45,24
1555579685.20249,-40,45,23
1555579685.23374,-40,45,23
1555579685.26499,-40,45,23
1555579685.29624,-40,45,23
1555579685.32749,-40,45,23
1555579685.35874,-40,45,23
1555579685.38999,-40,45,24
1555579685.42125,-41,45,23
1555579685.4525,-40,45,23
1555579685.48375,-40,45,24
1555579685.515,-40,45,24
1555579685.54625,-41,45,24
1555579685.5775,-40,45,24
1555579685.60875,-41,45,24
1555579685.64001,-40,45,24
1555579685.67126,-40,45,24
1555579685.70251,-40,45,24
1555579685.73376,-40,45,23
1555579685.76501,-41,45,23
1555579685.79626,-41,45,23
1555579685.82751,-41,45,24
1555579685.85877,-41,44,24
1555579685.89002,-41,44,24
1555579685.92127,-41,44,24
1555579685.95252,-42,44,23
1555579685.98377,-42,44,24
1555579686.01502,-41,44,24
1555579686.04628,-41,44,23
1555579686.07753,-41,45,24
1555579686.10878,-41,44,24
1555579686.14003,-41,45,24
1555579686.17128,-41,44,24
1555579686.20253,-41,45,24
1555579686.23378,-41,45,24
1555579686.26504,-41,44,24
1555579686.29629,-41,44,24
1555579686.32754,-41,44,24
1555579686.35879,-41,44,24
1555579686.39004,-41,44,23
1555579686.42129,-41,44,23
1555579686.45254,-41,44,23
1555579686.4838,-42,44,24
1555579686.51505,-42,44,23
1555579686.5463,-42,43,24
1555579686.57755,-41,43,24
1555579686.6088,-41,45,24
1555579686.64005,-40,46,23
1555579686.6713,-40,46,23
1555579686.70256,-41,45,24
1555579686.73381,-41,44,24
1555579686.76506,-41,44,24
1555579686.79631,-42,44,23
1555579686.82756,-42,44,23
1555579686.85881,-42,44,24
1555579686.89006,-42,44,24
1555579686.92132,-42,44,23
1555579686.95257,-41,44,23
1555579686.98382,-42,44,24
1555579687.01507,-41,44,24
1555579687.04632,-40,45,24
1555579687.07757,-40,45,24
1555579687.10882,-40,45,23
1555579687.14008,-40,46,23
1555579687.17133,-40,46,24
1555579687.20258,-40,45,24
1555579687.23383,-40,45,24
1555579687.26508,-41,45,24
1555579687.29633,-41,45,24
1555579687.32758,-41,45,24
1555579687.35884,-41,45,24
1555579687.39009,-40,45,24
1555579687.42134,-40,45,24
1555579687.45259,-40,45,24
1555579687.48384,-41,45,24
1555579687.51509,-41,45,24
1555579687.54634,-40,45,24
1555579687.5776,-40,45,23
1555579687.60885,-40,45,24
1555579687.6401,-40,45,24
1555579687.67135,-40,45,24
1555579687.7026,-40,45,24
1555579687.73385,-40,45,24
1555579687.7651,-40,45,23
1555579687.79636,-40,45,23
1555579687.82761,-40,45,23
1555579687.85886,-41,45,24
1555579687.89011,-41,45,23
1555579687.92136,-40,45,24
1555579687.95261,-40,45,24
1555579687.98386,-40,44,23
1555579688.01512,-41,45,23
1555579688.04637,-41,45,23
1555579688.07762,-41,45,23
1555579688.10887,-41,45,23
1555579688.14012,-41,45,23
1555579688.17137,-41,45,23
1555579688.20263,-41,45,23
1555579688.23388,-41,45,23
1555579688.26513,-41,45,23
1555579688.29638,-41,45,24
1555579688.32763,-41,45,23
1555579688.35888,-41,45,23
1555579688.39013,-42,44,23
1555579688.42139,-41,45,23
1555579688.45264,-41,44,24
1555579688.48389,-41,44,24
1555579688.51514,-42,44,24
1555579688.54639,-42,44,23
1555579688.57764,-42,44,23
1555579688.60889,-42,43,23
1555579688.64015,-42,43,24
1555579688.6714,-43,43,24
1555579688.70265,-43,43,23
1555579688.7339,-42,44,23
1555579688.76515,-42,44,23
1555579688.7964,-41,45,23
1555579688.82765,-41,45,24
1555579688.85891,-41,45,24
1555579688.89016,-41,44,24
1555579688.92141,-41,44,24
1555579688.95266,-42,43,23
1555579688.98391,-42,43,23
1555579689.01516,-43,43,23
1555579689.04641,-43,43,23
1555579689.07767,-43,43,23
1555579689.10892,-42,43,23
1555579689.14017,-42,44,23
1555579689.17142,-42,44,23
1555579689.20267,-42,44,23
1555579689.23392,-42,44,23
1555579689.26517,-42,44,23
1555579689.29643,-42,44,23
1555579689.32768,-41,44,23
1555579689.35893,-42,44,23
1555579689.39018,-42,44,23
1555579689.42143,-42,44,23
1555579689.45268,-42,44,23
1555579689.48393,-42,44,23
1555579689.51519,-42,44,23
1555579689.54644,-42,44,24
1555579689.57769,-41,44,23
1555579689.60894,-42,44,23
1555579689.64019,-42,44,23
1555579689.67144,-42,44,23
1555579689.70269,-42,44,23
1555579689.73395,-42,44,23
1555579689.7652,-42,44,24
1555579689.79645,-42,44,24
1555579689.8277,-41,44,24
1555579689.85895,-41,44,23
1555579689.8902,-41,44,23
1555579689.92145,-41,45,23
1555579689.95271,-41,45,24
1555579690.01521,-41,44,24
1555579689.98396,-41,45,24
1555579690.04646,-41,44,23
1555579690.07771,-42,44,23
1555579690.10896,-41,44,24
1555579690.14021,-41,44,24
1555579690.17147,-41,44,23
1555579690.20272,-41,44,23
1555579690.23397,-41,44,23
1555579690.26522,-41,44,24
1555579690.29647,-41,44,23
1555579690.32772,-41,44,23
1555579690.35897,-41,44,23
1555579690.39023,-41,44,24
1555579690.42148,-42,44,23
1555579690.45273,-42,44,23
1555579690.48398,-41,44,24
1555579690.51523,-41,44,23
1555579690.54648,-42,44,23
1555579690.57773,-42,44,23
1555579690.60899,-42,44,23
1555579690.64024,-42,44,23
1555579690.67149,-42,44,23
1555579690.70274,-42,44,23
1555579690.73399,-42,44,24
1555579690.76524,-41,44,24
1555579690.79649,-41,44,24
1555579690.82775,-41,45,23
1555579690.859,-41,45,23
1555579690.89025,-41,45,23
1555579690.9215,-41,45,24
1555579690.95275,-40,45,24
1555579690.984,-41,44,24
1555579691.01526,-41,45,24
1555579691.04651,-41,45,23
1555579691.07776,-41,44,24
1555579691.10901,-41,44,24
1555579691.14026,-41,44,24
1555579691.17151,-41,44,24
1555579691.20276,-41,45,24
1555579691.23402,-41,44,23
1555579691.26527,-41,45,23
1555579691.29652,-41,45,23
1555579691.32777,-41,45,24
1555579691.35902,-42,45,23
1555579691.39027,-42,44,23
1555579691.42152,-42,44,24
1555579691.45278,-42,44,23
1555579691.48403,-42,44,23
1555579691.51528,-42,44,23
1555579691.54653,-42,44,24
1555579691.57778,-42,44,23
1555579691.60903,-42,44,23
1555579691.64028,-42,44,23
1555579691.67154,-42,44,23
1555579691.70279,-41,44,24
1555579691.73404,-41,44,24
1555579691.76529,-41,44,24
1555579691.79654,-42,44,24
1555579691.82779,-42,44,24
1555579691.85904,-42,44,24
1555579691.8903,-42,44,23
1555579691.92155,-42,44,23
1555579691.9528,-42,44,23
1555579691.98405,-42,44,24
1555579692.0153,-42,45,23
1555579692.04655,-42,44,23
1555579692.0778,-42,44,23
1555579692.10906,-42,44,23
1555579692.14031,-42,44,23
1555579692.17156,-42,44,23
1555579692.20281,-42,44,23
1555579692.23406,-42,44,23
1555579692.26531,-42,44,23
1555579692.29656,-42,44,23
1555579692.32782,-42,44,23
1555579692.35907,-42,44,23
1555579692.39032,-42,44,24
1555579692.42157,-42,44,23
1555579692.45282,-42,44,23
1555579692.48407,-42,44,23
1555579692.51532,-42,44,24
1555579692.54658,-42,44,23
1555579692.57783,-42,44,23
1555579692.60908,-42,44,23
1555579692.64033,-42,44,23
1555579692.67158,-42,44,23
1555579692.70283,-41,44,23
1555579692.73408,-41,44,23
1555579692.76534,-42,44,23
1555579692.79659,-41,44,23
1555579692.82784,-41,44,23
1555579692.85909,-41,45,23
1555579692.89034,-41,45,23
1555579692.92159,-41,45,23
1555579692.95284,-41,45,23
1555579692.9841,-41,45,24
1555579693.01535,-41,45,24
1555579693.0466,-41,45,23
1555579693.07785,-40,45,23
1555579693.1091,-40,45,24
1555579693.14035,-40,45,24
1555579693.1716,-40,45,24
1555579693.20286,-40,45,24
1555579693.23411,-40,45,24
1555579693.26536,-41,45,23
1555579693.29661,-40,45,23
1555579693.32786,-41,45,23
1555579693.35911,-40,45,24
1555579693.39037,-40,45,23
1555579693.42162,-41,45,23
1555579693.45287,-41,45,23
1555579693.48412,-40,45,23
1555579693.51537,-40,45,23
1555579693.54662,-40,45,23
1555579693.57787,-40,45,23
1555579693.60913,-40,45,23
1555579693.64038,-40,45,23
1555579693.67163,-40,45,23
1555579693.70288,-40,45,23
1555579693.73413,-40,45,24
1555579693.76538,-40,45,23
1555579693.79663,-40,45,23
1555579693.82789,-40,45,23
1555579693.85914,-40,45,24
1555579693.89039,-40,45,23
1555579693.92164,-41,45,23
1555579693.95289,-40,45,23
1555579693.98414,-41,45,23
1555579694.01539,-40,46,23
1555579694.04665,-40,46,23
1555579694.0779,-40,46,24
1555579694.10915,-40,46,24
1555579694.1404,-40,45,23
1555579694.17165,-40,45,23
1555579694.2029,-40,45,23
1555579694.23415,-40,45,23
1555579694.26541,-40,45,23
1555579694.29666,-41,45,23
1555579694.32791,-41,45,23
1555579694.35916,-40,45,23
1555579694.39041,-40,45,23
1555579694.42166,-40,45,23
1555579694.45291,-40,45,23
1555579694.48417,-41,45,23
1555579694.51542,-41,45,23
1555579694.54667,-40,45,23
1555579694.57792,-41,45,23
1555579694.60917,-41,45,23
1555579694.64042,-41,45,23
1555579694.67167,-41,45,23
1555579694.70293,-41,45,23
1555579694.73418,-41,45,24
1555579694.76543,-41,44,23
1555579694.79668,-41,45,23
1555579694.82793,-41,45,23
1555579694.85918,-41,45,23
1555579694.89043,-41,45,23
1555579694.92169,-41,45,23
1555579694.95294,-41,45,23
1555579694.98419,-42,45,23
1555579695.01544,-41,44,23
1555579695.04669,-42,44,23
1555579695.07794,-42,44,23
1555579695.10919,-42,44,23
1555579695.14045,-42,45,23
1555579695.1717,-42,44,23
1555579695.20295,-42,44,23
1555579695.2342,-41,44,23
1555579695.26545,-42,44,23
1555579695.2967,-42,44,23
1555579695.32795,-42,44,23
1555579695.35921,-42,44,23
1555579695.39046,-42,44,23
1555579695.42171,-42,44,23
1555579695.45296,-42,44,23
1555579695.48421,-42,44,23
1555579695.51546,-42,44,23
1555579695.54672,-42,44,23
1555579695.57797,-42,44,23
1555579695.60922,-42,45,23
1555579695.64047,-41,44,24
1555579695.67172,-42,44,23
1555579695.70297,-42,44,23
1555579695.73422,-42,44,23
1555579695.76548,-42,44,23
1555579695.79673,-42,44,23
1555579695.82798,-42,44,23
1555579695.85923,-41,44,23
1555579695.89048,-41,45,23
1555579695.92173,-42,44,23
1555579695.95298,-42,44,23
1555579695.98424,-42,44,23
1555579696.01549,-42,44,23
1555579696.04674,-43,44,23
1555579696.07799,-42,44,23
1555579696.10924,-42,44,23
1555579696.14049,-42,44,23
1555579696.17174,-42,44,23
1555579696.203,-42,44,23
1555579696.23425,-42,44,23
1555579696.2655,-42,44,23
1555579696.29675,-42,44,23
1555579696.328,-42,44,23
1555579696.35925,-42,44,23
1555579696.3905,-42,44,23
1555579696.42176,-42,44,23
1555579696.45301,-42,44,23
1555579696.48426,-42,44,23
1555579696.51551,-42,44,23
1555579696.54676,-42,44,23
1555579696.57801,-42,44,23
1555579696.60926,-42,44,23
1555579696.64052,-43,44,22
1555579696.67177,-42,44,23
1555579696.70302,-42,44,23
1555579696.73427,-42,44,23
1555579696.76552,-42,44,23
1555579696.79677,-42,44,23
1555579696.82802,-42,44,23
1555579696.85928,-42,44,23
1555579696.89053,-42,44,23
1555579696.92178,-42,44,23
1555579696.95303,-42,44,23
1555579696.98428,-42,44,23
1555579697.01553,-42,44,23
1555579697.04678,-42,44,23
1555579697.07804,-42,44,23
1555579697.10929,-42,44,23
1555579697.14054,-42,44,23
1555579697.17179,-42,44,23
1555579697.20304,-42,45,23
1555579697.23429,-42,44,23
1555579697.26554,-41,44,23
1555579697.2968,-41,44,23
1555579697.32805,-42,44,22
1555579697.3593,-42,44,23
1555579697.39055,-42,45,23
1555579697.4218,-41,44,23
1555579697.45305,-42,44,23
1555579697.4843,-42,44,23
1555579697.51556,-42,44,23
1555579697.54681,-42,44,23
1555579697.57806,-41,44,23
1555579697.60931,-41,45,23
1555579697.64056,-41,45,23
1555579697.67181,-42,45,23
1555579697.70306,-42,45,23
1555579697.73432,-42,44,23
1555579697.76557,-41,44,23
1555579697.79682,-41,45,23
1555579697.82807,-41,45,23
1555579697.85932,-41,45,23
1555579697.89057,-41,45,23
1555579697.92182,-41,45,23
1555579697.95308,-41,45,23
1555579697.98433,-41,45,23
1555579698.01558,-42,45,22
1555579698.04683,-41,46,23
1555579698.07808,-40,46,23
1555579698.10933,-40,46,23
1555579698.14058,-40,46,23
1555579698.17184,-41,45,22
1555579698.20309,-41,45,23
1555579698.23434,-41,45,23
1555579698.26559,-41,45,23
1555579698.29684,-41,45,23
1555579698.32809,-41,45,23
1555579698.35935,-40,46,23
1555579698.3906,-40,46,22
1555579698.42185,-40,46,23
1555579698.4531,-40,46,22
1555579698.48435,-40,46,23
1555579698.5156,-40,46,23
1555579698.54685,-40,46,23
1555579698.57811,-40,46,23
1555579698.60936,-40,45,23
1555579698.64061,-41,45,23
1555579698.67186,-41,45,23
1555579698.70311,-41,45,23
1555579698.73436,-41,46,23
1555579698.76561,-40,46,23
1555579698.79687,-40,46,23
1555579698.82812,-41,45,23
1555579698.85937,-41,45,23
1555579698.89062,-41,45,23
1555579698.92187,-41,46,23
1555579698.95312,-41,46,23
1555579698.98437,-40,46,23
1555579699.01563,-41,45,23
1555579699.04688,-41,45,23
1555579699.07813,-41,45,23
1555579699.10938,-41,45,23
1555579699.14063,-41,45,23
1555579699.17188,-41,45,23
1555579699.20313,-41,45,23
1555579699.23439,-41,45,23
1555579699.26564,-40,45,23
1555579699.29689,-40,45,23
1555579699.32814,-41,45,23
1555579699.35939,-41,45,22
1555579699.39064,-41,45,23
1555579699.42189,-41,45,23
1555579699.45315,-41,45,23
1555579699.4844,-41,45,23
1555579699.51565,-41,45,23
1555579699.5469,-41,45,23
1555579699.57815,-41,45,23
1555579699.6094,-41,45,23
1555579699.64065,-41,45,23
1555579699.67191,-41,45,23
1555579699.70316,-41,45,23
1555579699.73441,-41,45,23
1555579699.76566,-41,45,23
1555579699.79691,-41,45,23
1555579699.82816,-41,45,23
1555579699.85941,-41,45,23
1555579699.89067,-42,45,23
1555579699.92192,-41,45,23
1555579699.95317,-41,45,23
1555579699.98442,-42,44,22
1555579700.01567,-42,44,23
1555579700.04692,-42,44,23
1555579700.07817,-42,45,23
1555579700.10943,-42,44,23
1555579700.14068,-42,44,23
1555579700.17193,-42,44,23
1555579700.20318,-42,44,23
1555579700.23443,-42,44,23
1555579700.26568,-42,44,23
1555579700.29693,-42,44,23
1555579700.32819,-42,45,23
1555579700.35944,-42,44,23
1555579700.39069,-42,44,23
1555579700.42194,-42,44,23
1555579700.45319,-42,44,23
1555579700.48444,-42,44,23
1555579700.5157,-42,44,23
1555579700.54695,-42,44,23
1555579700.5782,-42,44,23
1555579700.60945,-41,44,23
1555579700.6407,-42,44,23
1555579700.67195,-42,44,23
1555579700.7032,-41,44,23
1555579700.73446,-42,45,23
1555579700.76571,-41,45,23
1555579700.79696,-42,44,23
1555579700.82821,-42,44,23
1555579700.85946,-42,44,23
1555579700.89071,-42,45,23
1555579700.92196,-41,44,23
1555579700.95322,-41,44,23
1555579700.98447,-42,44,23
1555579701.01572,-42,44,23
1555579701.04697,-42,44,23
1555579701.07822,-42,44,23
1555579701.10947,-42,44,23
1555579701.14072,-42,44,23
1555579701.17198,-41,45,23
1555579701.20323,-42,44,23
1555579701.23448,-42,44,23
1555579701.26573,-41,44,23
1555579701.29698,-42,44,23
1555579701.32823,-42,44,23
1555579701.35948,-42,44,23
1555579701.39074,-42,45,23
1555579701.42199,-42,44,23
1555579701.45324,-42,44,23
1555579701.48449,-42,44,23
1555579701.51574,-42,44,23
1555579701.54699,-42,44,23
1555579701.57824,-41,44,23
1555579701.6095,-42,44,23
1555579701.64075,-42,44,23
1555579701.672,-42,44,23
1555579701.70325,-42,44,23
1555579701.7345,-42,44,23
1555579701.76575,-42,44,23
1555579701.797,-42,44,23
1555579701.82826,-41,45,23
1555579701.85951,-42,44,23
1555579701.89076,-42,44,23
1555579701.92201,-41,44,23
1555579701.95326,-42,44,23
1555579701.98451,-42,44,23
1555579702.01576,-42,44,23
1555579702.04702,-42,44,23
1555579702.07827,-42,44,23
1555579702.10952,-42,44,23
1555579702.14077,-42,44,23
1555579702.17202,-42,44,23
1555579702.20327,-42,44,23
1555579702.23452,-41,44,23
1555579702.26578,-41,44,23
1555579702.29703,-41,44,23
1555579702.32828,-42,44,23
1555579702.35953,-41,44,23
1555579702.39078,-42,44,23
1555579702.42203,-42,44,23
1555579702.45328,-41,44,23
1555579702.48454,-42,45,23
1555579702.51579,-42,44,23
1555579702.54704,-41,45,23
1555579702.57829,-41,44,23
1555579702.60954,-41,44,23
1555579702.64079,-42,44,23
1555579702.67204,-41,44,23
1555579702.7033,-42,45,23
1555579702.73455,-42,45,23
1555579702.7658,-41,44,23
1555579702.79705,-41,44,23
1555579702.8283,-41,44,23
1555579702.85955,-41,45,23
1555579702.89081,-41,44,23
1555579702.92206,-41,45,23
1555579702.95331,-41,45,23
1555579702.98456,-41,45,23
1555579703.01581,-41,45,23
1555579703.04706,-41,45,23
1555579703.07831,-41,45,23
1555579703.10957,-41,45,23
1555579703.14082,-41,45,23
1555579703.17207,-41,45,23
1555579703.20332,-41,45,23
1555579703.23457,-41,45,23
1555579703.26582,-41,45,23
1555579703.29707,-42,44,22
1555579703.32833,-42,45,22
1555579703.35958,-42,45,23
1555579703.39083,-41,45,23
1555579703.42208,-41,45,23
1555579703.45333,-41,45,23
1555579703.48458,-41,45,23
1555579703.51583,-41,45,23
1555579703.54709,-41,45,23
1555579703.57834,-41,45,23
1555579703.60959,-41,45,23
1555579703.64084,-42,45,23
1555579703.67209,-41,45,23
1555579703.70334,-42,45,23
1555579703.73459,-41,44,23
1555579703.76585,-41,44,23
1555579703.7971,-41,45,23
1555579703.82835,-41,45,23
1555579703.8596,-41,45,23
1555579703.89085,-41,45,23
1555579703.9221,-41,45,23
1555579703.95335,-41,45,23
1555579703.98461,-41,45,22
1555579704.01586,-41,45,23
1555579704.04711,-41,45,23
1555579704.07836,-40,45,23
1555579704.10961,-40,45,23
1555579704.14086,-40,45,23
1555579704.17211,-40,45,23
1555579704.20337,-40,46,23
1555579704.23462,-40,45,23
1555579704.26587,-40,46,23
1555579704.29712,-40,46,23
1555579704.32837,-40,46,23
1555579704.35962,-40,46,23
1555579704.39087,-40,46,23
1555579704.42213,-40,46,23
1555579704.45338,-40,46,23
1555579704.48463,-40,46,23
1555579704.51588,-40,46,23
1555579704.54713,-40,46,23
1555579704.57838,-40,46,23
1555579704.60963,-40,46,23
1555579704.64089,-40,46,22
1555579704.67214,-40,46,22
1555579704.70339,-40,46,23
1555579704.73464,-40,46,23
1555579704.76589,-40,46,23
1555579704.79714,-40,46,23
1555579704.82839,-40,46,23
1555579704.85965,-40,46,23
1555579704.8909,-39,46,23
1555579704.9534,-39,46,23
1555579704.92215,-39,46,23
1555579704.98465,-40,46,23
1555579705.0159,-40,46,23
1555579705.04715,-39,47,23
1555579705.07841,-39,47,23
1555579705.10966,-40,46,23
1555579705.14091,-39,46,24
1555579705.17216,-40,46,23
1555579705.20341,-40,46,23
1555579705.23466,-39,46,23
1555579705.26591,-39,46,23
1555579705.29717,-40,46,23
1555579705.32842,-40,46,23
1555579705.35967,-40,46,23
1555579705.39092,-40,46,23
1555579705.42217,-39,46,23
1555579705.45342,-40,46,23
1555579705.48467,-40,46,23
1555579705.51593,-40,46,23
1555579705.54718,-40,46,23
1555579705.57843,-40,46,23
1555579705.60968,-40,46,23
1555579705.64093,-40,46,23
1555579705.67218,-40,46,23
1555579705.70344,-40,46,23
1555579705.73469,-40,46,23
1555579705.76594,-40,46,23
1555579705.79719,-40,46,23
1555579705.82844,-40,46,23
1555579705.85969,-40,46,23
1555579705.89094,-40,45,23
1555579705.9222,-40,45,23
1555579705.95345,-40,45,23
1555579705.9847,-41,45,23
1555579706.01595,-41,45,23
1555579706.0472,-40,45,23
1555579706.07845,-41,45,23
1555579706.1097,-40,45,24
1555579706.14096,-41,45,24
1555579706.17221,-41,45,24
1555579706.20346,-41,45,24
1555579706.23471,-41,44,24
1555579706.26596,-40,45,24
1555579706.29721,-40,45,24
1555579706.32846,-41,45,24
1555579706.35972,-41,45,23
1555579706.39097,-40,45,24
1555579706.42222,-40,45,23
1555579706.45347,-40,45,24
1555579706.48472,-40,46,23
1555579706.51597,-40,45,24
1555579706.54722,-41,45,24
1555579706.57848,-41,45,23
1555579706.60973,-40,45,23
1555579706.64098,-41,45,23
1555579706.67223,-41,45,23
1555579706.70348,-41,45,23
1555579706.73473,-41,45,23
1555579706.76598,-41,45,23
1555579706.79724,-41,44,23
1555579706.82849,-42,44,23
1555579706.85974,-42,44,23
1555579706.89099,-42,44,23
1555579706.92224,-42,44,23
1555579706.95349,-42,44,23
1555579706.98474,-42,44,23
1555579707.016,-42,44,23
1555579707.04725,-42,44,23
1555579707.0785,-42,44,23
1555579707.10975,-42,44,23
1555579707.141,-42,44,23
1555579707.17225,-42,44,23
1555579707.2035,-42,44,23
1555579707.23476,-42,44,23
1555579707.26601,-42,45,23
1555579707.29726,-42,44,23
1555579707.32851,-42,44,23
1555579707.35976,-42,44,23
1555579707.39101,-42,44,23
1555579707.42226,-42,44,23
1555579707.45352,-42,44,23
1555579707.48477,-42,44,23
1555579707.51602,-42,44,23
1555579707.54727,-43,44,23
1555579707.57852,-43,44,23
1555579707.60977,-42,44,23
1555579707.64102,-42,44,23
1555579707.67228,-42,44,23
1555579707.70353,-42,44,23
1555579707.73478,-42,44,23
1555579707.76603,-42,44,23
1555579707.79728,-42,44,23
1555579707.82853,-42,44,23
1555579707.85979,-42,44,23
1555579707.89104,-42,44,23
1555579707.92229,-42,44,23
1555579707.95354,-42,44,24
1555579707.98479,-42,44,23
1555579708.01604,-42,44,23
1555579708.04729,-42,44,23
1555579708.07855,-42,44,23
1555579708.1098,-42,44,23
1555579708.14105,-42,44,23
1555579708.1723,-42,44,23
1555579708.20355,-42,44,23
1555579708.2348,-42,44,23
1555579708.26605,-42,44,23
1555579708.29731,-42,44,23
1555579708.32856,-42,44,23
1555579708.35981,-42,44,23
1555579708.39106,-42,44,23
1555579708.42231,-42,44,23
1555579708.45356,-42,44,23
1555579708.48481,-42,44,23
1555579708.51607,-42,44,23
1555579708.54732,-42,44,23
1555579708.57857,-42,44,23
1555579708.60982,-42,44,23
1555579708.64107,-42,44,23
1555579708.67232,-42,44,23
1555579708.70357,-42,44,23
1555579708.73483,-42,44,23
1555579708.76608,-42,44,23
1555579708.79733,-42,44,23
1555579708.82858,-42,44,23
1555579708.85983,-42,44,23
1555579708.89108,-42,44,23
1555579708.92233,-42,44,23
1555579708.95359,-42,44,23
1555579708.98484,-42,44,23
1555579709.01609,-42,44,23
1555579709.04734,-42,44,23
1555579709.07859,-42,44,23
1555579709.10984,-42,44,23
1555579709.14109,-42,44,23
1555579709.17235,-42,44,23
1555579709.2036,-41,44,23
1555579709.23485,-41,44,23
1555579709.2661,-42,45,23
1555579709.29735,-42,45,23
1555579709.3286,-42,44,23
1555579709.35985,-41,44,24
1555579709.39111,-41,44,23
1555579709.42236,-41,44,23
1555579709.45361,-41,44,23
1555579709.48486,-41,44,23
1555579709.51611,-42,44,23
1555579709.54736,-42,44,23
1555579709.57861,-42,44,23
1555579709.60987,-42,44,23
1555579709.64112,-42,44,23
1555579709.67237,-42,44,23
1555579709.70362,-42,44,23
1555579709.73487,-42,44,23
1555579709.76612,-42,44,23
1555579709.79737,-42,44,23
1555579709.82863,-42,44,23
1555579709.85988,-42,44,23
1555579709.89113,-42,44,23
1555579709.92238,-42,44,23
1555579709.95363,-43,44,23
1555579709.98488,-43,44,23
1555579710.01613,-43,44,23
1555579710.04739,-43,44,23
1555579710.07864,-42,43,23
1555579710.10989,-42,44,23
1555579710.14114,-43,44,23
1555579710.17239,-42,44,23
1555579710.20364,-42,45,23
1555579710.23489,-41,45,23
1555579710.26615,-42,44,23
1555579710.2974,-42,44,23
1555579710.32865,-42,44,23
1555579710.3599,-42,44,23
1555579710.39115,-42,44,23
1555579710.4224,-42,44,23
1555579710.45366,-41,44,23
1555579710.48491,-42,44,23
1555579710.51616,-41,45,23
1555579710.54741,-41,45,23
1555579710.57866,-41,45,23
1555579710.60991,-41,44,22
1555579710.64116,-41,44,23
1555579710.67242,-41,45,24
1555579710.70367,-41,45,24
1555579710.73492,-40,45,24
1555579710.76617,-39,46,23
1555579710.79742,-39,47,22
1555579710.82867,-40,46,23
1555579710.85992,-36,48,22
1555579710.89118,-37,49,23
1555579710.92243,-34,49,25
1555579710.95368,-35,50,26
1555579710.98493,-35,49,25
1555579711.01618,-36,48,24
1555579711.04743,-36,48,24
1555579711.07868,-37,48,25
1555579711.10994,-37,47,25
1555579711.14119,-38,46,25
1555579711.17244,-39,46,24
1555579711.20369,-40,45,25
1555579711.23494,-39,46,25
1555579711.26619,-39,46,26
1555579711.29744,-39,46,25
1555579711.3287,-39,45,24
1555579711.35995,-40,45,24
1555579711.3912,-39,45,25
1555579711.42245,-39,46,25
1555579711.4537,-38,46,24
1555579711.48495,-38,44,23
1555579711.5162,-38,44,23
1555579711.54746,-40,43,23
1555579711.57871,-41,44,24
1555579711.60996,-41,46,25
1555579711.64121,-40,46,25
1555579711.67246,-39,44,23
1555579711.70371,-42,45,23
1555579711.73496,-44,46,23
1555579711.76622,-40,46,23
1555579711.79747,-38,46,23
1555579711.82872,-42,48,23
1555579711.85997,-43,48,23
1555579711.89122,-41,47,23
1555579711.92247,-40,46,23
1555579711.95372,-40,43,23
1555579711.98498,-41,43,23
1555579712.01623,-42,42,22
1555579712.04748,-42,41,22
1555579712.07873,-42,42,22
1555579712.10998,-42,42,22
1555579712.14123,-42,44,24
1555579712.17248,-44,48,25
1555579712.20374,-44,49,24
1555579712.23499,-40,46,21
1555579712.26624,-39,45,20
1555579712.29749,-42,44,22
1555579712.32874,-42,45,23
1555579712.35999,-41,45,23
1555579712.39124,-40,45,23
1555579712.4225,-41,45,23
1555579712.45375,-42,45,23
1555579712.485,-43,45,23
1555579712.51625,-42,44,23
1555579712.5475,-42,43,23
1555579712.57875,-41,43,23
1555579712.61,-41,43,24
1555579712.64126,-41,45,24
1555579712.67251,-41,45,24
1555579712.70376,-40,46,23
1555579712.73501,-40,46,24
1555579712.76626,-40,45,24
1555579712.79751,-40,45,24
1555579712.82877,-41,44,24
1555579712.86002,-41,43,24
1555579712.89127,-42,44,24
1555579712.92252,-42,44,24
1555579712.95377,-41,44,23
1555579712.98502,-40,45,24
1555579713.01627,-40,45,24
1555579713.04753,-40,45,24
1555579713.07878,-40,46,23
1555579713.11003,-40,46,23
1555579713.14128,-41,46,24
1555579713.17253,-43,43,25
1555579713.20378,-43,41,26
1555579713.23503,-44,37,25
1555579713.26629,-44,37,24
1555579713.29754,-44,41,22
1555579713.32879,-44,43,22
1555579713.36004,-42,46,23
1555579713.39129,-39,47,25
1555579713.42254,-39,47,25
1555579713.45379,-40,46,24
1555579713.48505,-41,46,24
1555579713.5163,-42,45,23
1555579713.54755,-43,44,23
1555579713.5788,-42,43,24
1555579713.61005,-42,43,23
1555579713.6413,-42,44,24
1555579713.67255,-42,44,24
1555579713.70381,-42,44,24
1555579713.73506,-42,44,23
1555579713.76631,-43,43,23
1555579713.79756,-43,43,24
1555579713.82881,-43,43,24
1555579713.86006,-43,42,23
1555579713.89131,-43,43,23
1555579713.92257,-43,43,23
1555579713.95382,-43,44,23
1555579713.98507,-43,44,24
1555579714.01632,-43,44,24
1555579714.04757,-42,44,23
1555579714.07882,-42,44,23
1555579714.11007,-42,43,24
1555579714.14133,-42,44,24
1555579714.17258,-42,44,24
1555579714.20383,-43,43,23
1555579714.23508,-43,43,23
1555579714.26633,-43,44,24
1555579714.29758,-43,43,24
1555579714.32883,-42,43,23
1555579714.36009,-42,43,24
1555579714.39134,-42,43,24
1555579714.42259,-42,43,24
1555579714.45384,-42,43,24
1555579714.48509,-42,43,24
1555579714.51634,-43,43,24
1555579714.54759,-43,44,24
1555579714.57885,-42,43,24
1555579714.6101,-43,44,24
1555579714.64135,-43,43,24
1555579714.6726,-42,43,25
1555579714.70385,-42,43,25
1555579714.7351,-42,43,25
1555579714.76635,-42,43,25
1555579714.79761,-43,44,25
1555579714.82886,-43,43,25
1555579714.86011,-42,44,24
1555579714.89136,-42,45,24
1555579714.92261,-43,43,25
1555579714.95386,-43,41,25
1555579714.98511,-42,42,24
1555579715.01637,-44,42,25
1555579715.04762,-43,40,26
1555579715.07887,-43,41,26
1555579715.11012,-46,40,25
1555579715.14137,-52,40,21
1555579715.17262,-64,40,10
1555579715.20388,-44,39,29
1555579715.23513,-42,42,31
1555579715.26638,-32,37,39
1555579715.29763,-24,39,48
1555579715.32888,-15,36,49
1555579715.36013,-14,37,45
1555579715.39138,-21,36,39
1555579715.42264,-15,38,53
1555579715.45389,-15,40,53
1555579715.48514,-31,43,38
1555579715.51639,-46,40,30
1555579715.54764,-56,33,24
1555579715.57889,-52,32,25
1555579715.61014,-54,29,27
1555579715.6414,-55,27,24
1555579715.67265,-54,26,22
1555579715.7039,-52,27,23
1555579715.73515,-48,29,25
1555579715.7664,-47,31,26
1555579715.79765,-48,33,27
1555579715.8289,-49,35,26
1555579715.86016,-49,35,23
1555579715.89141,-58,36,26
1555579715.92266,-54,34,26
1555579715.95391,-44,32,29
1555579715.98516,-45,31,31
1555579716.01641,-55,32,31
1555579716.04766,-55,31,28
1555579716.07892,-49,29,25
1555579716.11017,-52,30,25
1555579716.14142,-48,29,32
1555579716.17267,-42,32,41
1555579716.20392,-59,36,30
1555579716.23517,-56,32,16
1555579716.26642,-53,29,9
1555579716.29768,-51,29,-9
1555579716.32893,-46,29,-13
1555579716.36018,-43,30,-18
1555579716.39143,-39,32,-21
1555579716.42268,-18,38,-35
1555579716.45393,-14,39,-47
1555579716.48518,-31,34,-60
1555579716.51644,-31,34,-59
1555579716.54769,-20,36,-61
1555579716.57894,-25,35,-65
1555579716.61019,-32,32,-61
1555579716.64144,-27,32,-49
1555579716.67269,-29,32,-46
1555579716.70394,-35,35,-45
1555579716.7352,-35,36,-47
1555579716.76645,-27,35,-52
1555579716.7977,-29,35,-51
1555579716.82895,-33,35,-45
1555579716.8602,-34,35,-43
1555579716.89145,-34,36,-40
1555579716.9227,-35,36,-37
1555579716.95396,-37,37,-36
1555579716.98521,-39,36,-36
1555579717.01646,-38,35,-35
1555579717.04771,-35,36,-33
1555579717.07896,-34,38,-33
1555579717.11021,-37,37,-37
1555579717.14146,-41,37,-39
1555579717.17272,-42,40,-43
1555579717.20397,-33,38,-43
1555579717.23522,-29,35,-45
1555579717.26647,-32,35,-47
1555579717.29772,-32,33,-49
1555579717.32897,-33,34,-47
1555579717.36022,-39,38,-42
1555579717.39148,-38,40,-40
1555579717.42273,-35,39,-37
1555579717.45398,-32,40,-38
1555579717.48523,-33,39,-39
1555579717.51648,-35,40,-44
1555579717.54773,-33,41,-43
1555579717.57898,-35,42,-38
1555579717.61024,-37,41,-37
1555579717.64149,-36,40,-37
1555579717.67274,-34,38,-37
1555579717.70399,-35,36,-38
1555579717.73524,-37,36,-39
1555579717.76649,-37,34,-39
1555579717.79774,-35,34,-37
1555579717.829,-40,34,-37
1555579717.86025,-41,39,-38
1555579717.8915,-36,39,-41
1555579717.92275,-36,38,-40
1555579717.954,-35,39,-39
1555579717.98525,-36,40,-40
1555579718.01651,-35,40,-40
1555579718.04776,-39,41,-38
1555579718.07901,-34,41,-37
1555579718.11026,-34,39,-35
1555579718.14151,-33,40,-34
1555579718.17276,-35,40,-33
1555579718.20401,-35,41,-33
1555579718.23527,-43,44,-35
1555579718.26652,-38,44,-39
1555579718.29777,-35,41,-39
1555579718.32902,-33,42,-34
1555579718.36027,-35,45,-32
1555579718.39152,-39,48,-36
1555579718.42277,-37,47,-35
1555579718.45403,-34,42,-32
1555579718.48528,-33,42,-31
1555579718.51653,-39,41,-33
1555579718.54778,-39,41,-32
1555579718.57903,-38,40,-31
1555579718.61028,-40,42,-31
1555579718.64153,-40,43,-32
1555579718.67279,-36,43,-30
1555579718.70404,-38,43,-31
1555579718.73529,-41,44,-33
1555579718.76654,-41,43,-33
1555579718.79779,-40,41,-32
1555579718.82904,-40,40,-32
1555579718.86029,-42,38,-33
1555579718.89155,-42,37,-34
1555579718.9228,-44,37,-34
1555579718.95405,-45,37,-35
1555579718.9853,-47,38,-31
1555579719.01655,-47,38,-29
1555579719.0478,-46,38,-25
1555579719.07905,-40,42,-23
1555579719.11031,-48,40,-30
1555579719.14156,-45,40,-31
1555579719.17281,-38,41,-27
1555579719.20406,-41,37,-36
1555579719.23531,-34,36,-32
1555579719.26656,-29,32,-30
1555579719.29781,-36,31,-33
1555579719.32907,-62,14,-53
1555579719.36032,-62,26,-36
1555579719.39157,-55,23,-15
1555579719.42282,-51,24,-7
1555579719.45407,-43,31,8
1555579719.48532,-58,33,5
1555579719.51657,-65,32,-1
1555579719.54783,-61,33,-6
1555579719.57908,-55,34,-3
1555579719.61033,-54,34,4
1555579719.64158,-54,33,6
1555579719.67283,-58,30,5
1555579719.70408,-60,28,5
1555579719.73533,-62,25,5
1555579719.76659,-62,25,6
1555579719.79784,-60,24,4
1555579719.82909,-61,23,3
1555579719.86034,-58,24,4
1555579719.89159,-56,26,5
1555579719.92284,-60,29,5
1555579719.95409,-62,31,6
1555579719.98535,-61,31,6
1555579720.0166,-57,32,8
1555579720.04785,-56,32,9
1555579720.0791,-57,31,10
1555579720.11035,-57,31,10
1555579720.1416,-57,30,10
1555579720.17286,-57,30,11
1555579720.20411,-57,31,10
1555579720.23536,-58,30,10
1555579720.26661,-58,30,9
1555579720.29786,-58,30,9
1555579720.32911,-57,30,9
1555579720.36036,-59,30,8
1555579720.39162,-59,31,8
1555579720.42287,-58,30,8
1555579720.45412,-58,30,9
1555579720.51662,-58,30,9
1555579720.48537,-58,30,9
1555579720.54787,-58,31,9
1555579720.57912,-58,31,8
1555579720.61038,-57,31,9
1555579720.64163,-57,31,9
1555579720.67288,-59,31,10
1555579720.70413,-57,30,8
1555579720.73538,-57,31,8
1555579720.76663,-59,32,9
1555579720.79788,-56,33,13
1555579720.82914,-51,33,23
1555579720.86039,-51,33,25
1555579720.89164,-50,31,23
1555579720.92289,-55,34,21
1555579720.95414,-51,31,23
1555579720.98539,-53,31,22
1555579721.01664,-50,30,24
1555579721.0479,-50,33,26
1555579721.07915,-51,33,25
1555579721.1104,-51,33,25
1555579721.14165,-51,32,25
1555579721.1729,-52,32,24
1555579721.20415,-52,31,24
1555579721.2354,-52,31,23
1555579721.26666,-52,32,22
1555579721.29791,-53,32,22
1555579721.32916,-52,32,22
1555579721.36041,-51,33,22
1555579721.39166,-52,32,21
1555579721.42291,-51,34,23
1555579721.45416,-51,34,23
1555579721.48542,-53,33,22
1555579721.51667,-54,33,21
1555579721.54792,-54,34,19
1555579721.57917,-52,34,19
1555579721.61042,-54,36,19
1555579721.64167,-57,35,19
1555579721.67292,-54,32,20
1555579721.70418,-48,33,22
1555579721.73543,-46,32,22
1555579721.76668,-46,33,25
1555579721.79793,-45,37,27
1555579721.82918,-56,38,24
1555579721.86043,-64,31,21
1555579721.89168,-55,32,17
1555579721.92294,-50,32,17
1555579721.95419,-49,33,18
1555579721.98544,-48,34,21
1555579722.01669,-46,36,23
1555579722.04794,-49,36,26
1555579722.07919,-50,37,27
1555579722.11044,-50,39,23
1555579722.1417,-50,39,20
1555579722.17295,-52,38,18
1555579722.2042,-53,36,18
1555579722.23545,-51,37,18
1555579722.2667,-52,37,18
1555579722.29795,-53,36,19
1555579722.3292,-53,36,20
1555579722.36046,-52,35,20
1555579722.39171,-50,34,20
1555579722.42296,-49,34,20
1555579722.45421,-50,34,21
1555579722.48546,-49,34,22
1555579722.51671,-48,36,21
1555579722.54797,-47,37,21
1555579722.57922,-49,39,22
1555579722.61047,-53,40,21
1555579722.64172,-47,37,21
1555579722.67297,-46,39,20
1555579722.70422,-47,41,18
1555579722.73547,-49,43,16
1555579722.76673,-49,44,15
1555579722.79798,-46,45,16
1555579722.82923,-46,45,16
1555579722.86048,-45,43,17
1555579722.89173,-43,43,16
1555579722.92298,-44,46,17
1555579722.95423,-43,47,18
1555579722.98549,-43,48,18
1555579723.01674,-45,47,17
1555579723.04799,-45,46,18
1555579723.07924,-45,45,19
1555579723.11049,-45,42,20
1555579723.14174,-45,42,19
1555579723.17299,-45,41,19
1555579723.20425,-46,42,19
1555579723.2355,-46,42,19
1555579723.26675,-48,43,20
1555579723.298,-47,43,20
1555579723.32925,-46,44,18
1555579723.3605,-46,43,19
1555579723.39175,-45,42,18
1555579723.42301,-44,43,18
1555579723.45426,-44,43,19
1555579723.48551,-44,43,19
1555579723.51676,-41,44,19
1555579723.54801,-41,44,19
1555579723.57926,-45,48,19
1555579723.61051,-45,45,18
1555579723.64177,-43,47,18
1555579723.67302,-41,46,16
1555579723.70427,-44,47,16
1555579723.73552,-45,47,16
1555579723.76677,-45,47,16
1555579723.79802,-46,46,17
1555579723.82927,-45,44,17
1555579723.86053,-44,45,17
1555579723.89178,-44,45,16
1555579723.92303,-44,46,17
1555579723.95428,-44,46,17
1555579723.98553,-43,45,17
1555579724.01678,-42,45,17
1555579724.04803,-43,45,17
1555579724.07929,-44,46,17
1555579724.11054,-43,46,17
1555579724.14179,-45,47,16
1555579724.17304,-45,46,16
1555579724.20429,-43,46,17
1555579724.23554,-43,46,16
1555579724.26679,-45,46,17
1555579724.29805,-44,45,17
1555579724.3293,-42,46,16
1555579724.36055,-43,47,16
1555579724.3918,-43,46,16
1555579724.42305,-43,46,16
1555579724.4543,-43,46,17
1555579724.48555,-42,46,17
1555579724.51681,-43,46,17
1555579724.54806,-44,47,17
1555579724.57931,-44,47,16
1555579724.61056,-42,46,17
1555579724.64181,-42,46,17
1555579724.67306,-44,45,16
1555579724.70431,-44,45,17
1555579724.73557,-43,45,17
1555579724.76682,-42,45,17
1555579724.79807,-45,47,17
1555579724.82932,-45,45,17
1555579724.86057,-43,46,17
1555579724.89182,-45,46,16
1555579724.92307,-46,46,16
1555579724.95433,-45,45,17
1555579724.98558,-44,44,17
1555579725.01683,-45,44,18
1555579725.04808,-45,44,17
1555579725.07933,-45,44,17
1555579725.11058,-45,43,17
1555579725.14184,-46,43,18
1555579725.17309,-46,43,19
1555579725.20434,-45,42,17
1555579725.23559,-44,44,19
1555579725.26684,-46,46,18
1555579725.29809,-46,44,17
1555579725.32934,-44,45,17
1555579725.3606,-44,45,18
1555579725.39185,-46,44,18
1555579725.4231,-44,44,19
1555579725.45435,-43,44,18
1555579725.4856,-45,45,18
1555579725.51685,-45,45,18
1555579725.5481,-43,45,19
1555579725.57936,-44,45,19
1555579725.61061,-45,45,18
1555579725.64186,-46,44,18
1555579725.67311,-45,44,18
1555579725.70436,-45,43,18
1555579725.73561,-45,43,18
1555579725.76686,-45,43,19
1555579725.79812,-45,43,19
1555579725.82937,-45,43,19
1555579725.86062,-45,43,19
1555579725.89187,-44,44,19
1555579725.92312,-44,44,19
1555579725.95437,-45,44,19
1555579725.98562,-44,44,20
1555579726.01688,-45,44,20
1555579726.04813,-45,44,20
1555579726.07938,-45,43,20
1555579726.11063,-44,43,19
1555579726.14188,-45,43,19
1555579726.17313,-45,43,19
1555579726.20438,-45,43,19
1555579726.23564,-46,43,19
1555579726.26689,-45,43,19
1555579726.29814,-45,44,19
1555579726.32939,-46,43,18
1555579726.36064,-47,43,15
1555579726.39189,-47,44,16
1555579726.42314,-45,45,22
1555579726.4544,-36,42,34
1555579726.48565,-38,44,28
1555579726.5169,-48,42,12
1555579726.54815,-48,42,13
1555579726.5794,-45,42,23
1555579726.61065,-45,41,22
1555579726.6419,-45,42,21
1555579726.67316,-36,44,27
1555579726.70441,-39,45,28
1555579726.73566,-48,48,21
1555579726.76691,-44,43,24
1555579726.79816,-39,44,29
1555579726.82941,-43,43,25
1555579726.86066,-41,42,26
1555579726.89192,-40,42,26
1555579726.92317,-40,41,24
1555579726.95442,-49,43,16
1555579726.98567,-40,41,27
1555579727.01692,-39,43,27
1555579727.04817,-42,44,23
1555579727.07942,-45,44,23
1555579727.11068,-49,44,19
1555579727.14193,-48,42,17
1555579727.17318,-45,42,16
1555579727.20443,-46,42,17
1555579727.23568,-48,41,18
1555579727.26693,-45,42,18
1555579727.29818,-44,43,18
1555579727.32944,-44,44,21
1555579727.36069,-46,43,19
1555579727.39194,-46,43,19
1555579727.42319,-46,44,19
1555579727.45444,-46,43,19
1555579727.48569,-46,43,18
1555579727.51695,-46,42,17
1555579727.5482,-47,42,17
1555579727.57945,-47,42,17
1555579727.6107,-47,43,18
1555579727.64195,-46,43,18
1555579727.6732,-46,43,17
1555579727.70445,-46,42,17
1555579727.73571,-46,43,18
1555579727.76696,-47,43,18
1555579727.79821,-47,43,18
1555579727.82946,-47,42,18
1555579727.86071,-46,43,18
1555579727.89196,-46,43,18
1555579727.92321,-46,43,17
1555579727.95447,-46,43,18
1555579727.98572,-46,43,18
1555579728.01697,-46,43,17
1555579728.04822,-46,43,17
1555579728.07947,-47,43,17
1555579728.11072,-47,43,17
1555579728.14197,-46,42,17
1555579728.17323,-47,42,17
1555579728.20448,-47,42,18
1555579728.23573,-47,42,17
1555579728.26698,-47,42,17
1555579728.29823,-47,42,17
1555579728.32948,-47,43,17
1555579728.36073,-47,42,17
1555579728.39199,-47,42,17
1555579728.42324,-47,43,17
1555579728.45449,-47,42,17
1555579728.48574,-47,42,17
1555579728.51699,-47,43,17
1555579728.54824,-47,43,16
1555579728.57949,-47,43,17
1555579728.61075,-47,42,17
1555579728.642,-47,43,17
1555579728.67325,-47,43,17
1555579728.7045,-47,43,17
1555579728.73575,-47,43,16
1555579728.767,-47,43,16
1555579728.79825,-47,43,17
1555579728.82951,-47,43,16
1555579728.86076,-47,43,16
1555579728.89201,-47,42,17
1555579728.92326,-47,42,16
1555579728.95451,-47,43,16
1555579728.98576,-47,43,16
1555579729.01701,-47,43,16
1555579729.04827,-47,43,16
1555579729.07952,-47,43,16
1555579729.11077,-47,43,16
1555579729.14202,-47,43,16
1555579729.17327,-47,43,16
1555579729.20452,-47,43,16
1555579729.23577,-47,43,16
1555579729.26703,-47,43,17
1555579729.29828,-47,43,16
1555579729.32953,-47,42,16
1555579729.36078,-47,42,17
1555579729.39203,-47,42,17
1555579729.42328,-47,43,16
1555579729.45453,-47,42,16
1555579729.48579,-47,42,16
1555579729.51704,-47,43,16
1555579729.54829,-47,42,16
1555579729.57954,-47,42,16
1555579729.61079,-47,42,16
1555579729.64204,-48,42,16
1555579729.67329,-48,42,16
1555579729.70455,-48,42,16
1555579729.7358,-48,42,16
1555579729.76705,-48,42,16
1555579729.7983,-47,42,16
1555579729.82955,-48,42,16
1555579729.8608,-48,42,16
1555579729.89206,-47,42,16
1555579729.92331,-48,42,16
1555579729.95456,-48,42,16
1555579729.98581,-48,42,16
1555579730.01706,-48,42,16
1555579730.04831,-48,42,16
1555579730.07956,-48,42,16
1555579730.11082,-48,42,16
1555579730.14207,-48,42,16
1555579730.17332,-48,42,16
1555579730.20457,-48,42,16
1555579730.23582,-48,42,16
1555579730.26707,-48,42,16
1555579730.29832,-48,42,16
1555579730.32958,-48,42,16
1555579730.36083,-48,42,16
1555579730.39208,-48,42,16
1555579730.42333,-47,42,16
1555579730.45458,-47,42,16
1555579730.48583,-48,42,16
1555579730.51708,-48,42,16
1555579730.54834,-47,42,16
1555579730.57959,-47,42,16
1555579730.61084,-48,42,16
1555579730.64209,-47,42,16
1555579730.67334,-48,42,16
1555579730.70459,-47,42,16
1555579730.73584,-47,42,16
1555579730.7671,-48,42,15
1555579730.79835,-48,42,16
1555579730.8296,-48,42,16
1555579730.86085,-47,42,15
1555579730.8921,-47,42,16
1555579730.92335,-48,42,16
1555579730.9546,-47,42,16
1555579730.98586,-48,42,16
1555579731.01711,-48,42,16
1555579731.04836,-48,42,16
1555579731.07961,-47,42,15
1555579731.11086,-48,42,15
1555579731.14211,-48,42,15
1555579731.17336,-48,42,15
1555579731.20462,-48,42,15
1555579731.23587,-48,42,16
1555579731.26712,-48,42,16
1555579731.29837,-48,42,15
1555579731.32962,-48,42,15
1555579731.36087,-48,42,15
1555579731.39212,-47,42,15
1555579731.42338,-48,42,15
1555579731.45463,-48,42,15
1555579731.48588,-48,42,15
1555579731.51713,-48,42,15
1555579731.54838,-48,42,15
1555579731.57963,-48,42,15
1555579731.61088,-48,42,15
1555579731.64214,-48,42,15
1555579731.67339,-48,42,15
1555579731.70464,-47,42,15
1555579731.73589,-47,42,15
1555579731.76714,-48,42,15
1555579731.79839,-48,42,15
1555579731.82964,-48,42,15
1555579731.8609,-48,42,15
1555579731.89215,-48,42,15
1555579731.9234,-47,42,15
1555579731.95465,-48,42,15
1555579731.9859,-48,43,15
1555579732.01715,-48,42,15
1555579732.0484,-47,43,16
1555579732.07966,-47,43,15
1555579732.11091,-48,42,15
1555579732.14216,-48,42,15
1555579732.17341,-48,43,15
1555579732.20466,-47,42,15
1555579732.23591,-47,42,15
1555579732.26716,-48,42,15
1555579732.29842,-48,42,15
1555579732.32967,-48,42,15
1555579732.36092,-48,42,15
1555579732.39217,-48,42,15
1555579732.42342,-48,43,16
1555579732.45467,-48,42,16
1555579732.48593,-47,42,16
1555579732.51718,-48,42,15
1555579732.54843,-48,42,15
1555579732.57968,-48,42,16
1555579732.61093,-48,42,16
1555579732.64218,-48,42,16
1555579732.67343,-48,42,16
1555579732.70469,-48,43,16
1555579732.73594,-48,42,15
1555579732.76719,-48,42,15
1555579732.79844,-48,42,15
1555579732.82969,-48,42,15
1555579732.86094,-48,42,15
1555579732.89219,-48,42,15
1555579732.92345,-48,42,16
1555579732.9547,-48,42,16
1555579732.98595,-48,42,16
1555579733.0172,-48,42,15
1555579733.04845,-48,42,15
1555579733.0797,-48,42,15
1555579733.11095,-48,42,15
1555579733.14221,-48,42,15
1555579733.17346,-48,42,15
1555579733.20471,-48,42,15
1555579733.23596,-48,42,15
1555579733.26721,-48,42,15
1555579733.29846,-48,42,15
1555579733.32971,-48,42,15
1555579733.36097,-48,42,16
1555579733.39222,-48,42,15
1555579733.42347,-48,42,15
1555579733.45472,-48,42,15
1555579733.48597,-48,42,16
1555579733.51722,-48,42,16
1555579733.54847,-48,42,16
1555579733.57973,-48,42,16
1555579733.61098,-48,42,15
1555579733.64223,-48,42,16
1555579733.67348,-48,42,16
1555579733.70473,-48,42,15
1555579733.73598,-48,42,15
1555579733.76723,-48,42,15
1555579733.79849,-48,42,16
1555579733.82974,-48,42,16
1555579733.86099,-48,42,16
1555579733.89224,-47,42,16
1555579733.92349,-48,42,16
1555579733.95474,-48,42,15
1555579733.98599,-48,42,15
1555579734.01725,-47,42,15
1555579734.0485,-48,42,15
1555579734.07975,-48,42,15
1555579734.111,-48,42,15
1555579734.14225,-47,42,15
1555579734.1735,-48,43,15
1555579734.20475,-47,43,15
1555579734.23601,-48,43,15
1555579734.26726,-48,42,15
1555579734.29851,-48,42,16
1555579734.32976,-47,43,16
1555579734.36101,-48,42,16
1555579734.39226,-48,42,16
1555579734.42351,-47,42,16
1555579734.45477,-47,42,17
1555579734.48602,-47,43,17
1555579734.51727,-47,43,17
1555579734.54852,-47,42,17
1555579734.57977,-47,42,17
1555579734.61102,-47,43,18
1555579734.64227,-46,42,19
1555579734.67353,-46,42,18
1555579734.70478,-47,42,19
1555579734.73603,-47,41,19
1555579734.76728,-47,42,19
1555579734.79853,-47,42,18
1555579734.82978,-47,42,19
1555579734.86104,-48,42,18
1555579734.89229,-48,42,18
1555579734.92354,-47,42,19
1555579734.95479,-46,41,20
1555579734.98604,-47,41,20
1555579735.01729,-48,40,19
1555579735.04854,-49,39,18
1555579735.0798,-47,40,19
1555579735.11105,-49,40,20
1555579735.1423,-49,39,21
1555579735.17355,-47,38,22
1555579735.2048,-48,39,21
1555579735.23605,-49,40,21
1555579735.2673,-49,40,22
1555579735.29856,-48,39,21
1555579735.32981,-48,39,21
1555579735.36106,-49,39,20
1555579735.39231,-49,38,20
1555579735.42356,-49,38,20
1555579735.45481,-49,37,21
1555579735.48606,-50,38,22
1555579735.51732,-50,41,24
1555579735.54857,-48,41,25
1555579735.57982,-45,40,25
1555579735.61107,-42,39,24
1555579735.64232,-47,38,23
1555579735.67357,-48,36,24
1555579735.70482,-46,36,26
1555579735.73608,-44,37,26
1555579735.76733,-45,37,27
1555579735.79858,-45,36,25
1555579735.82983,-47,37,24
1555579735.86108,-43,38,24
1555579735.89233,-43,40,23
1555579735.92358,-45,40,24
1555579735.95484,-45,41,24
1555579735.98609,-46,41,24
1555579736.01734,-44,41,26
1555579736.04859,-46,41,24
1555579736.07984,-48,40,24
1555579736.11109,-45,41,23
1555579736.14234,-46,42,22
1555579736.1736,-50,41,21
1555579736.20485,-51,40,20
1555579736.2361,-46,39,22
1555579736.26735,-44,38,23
1555579736.2986,-45,38,23
1555579736.32985,-45,41,21
1555579736.3611,-52,42,18
1555579736.39236,-52,35,21
1555579736.42361,-46,38,21
1555579736.45486,-50,38,19
1555579736.48611,-53,38,18
1555579736.51736,-54,35,17
1555579736.54861,-52,35,17
1555579736.57986,-53,35,15
1555579736.61112,-54,36,16
1555579736.64237,-50,37,18
1555579736.67362,-48,39,19
1555579736.70487,-49,40,19
1555579736.73612,-50,39,18
1555579736.76737,-50,40,17
1555579736.79862,-51,39,15
1555579736.82988,-54,37,14
1555579736.86113,-51,36,17
1555579736.89238,-48,37,18
1555579736.92363,-50,38,19
1555579736.95488,-51,39,18
1555579736.98613,-51,39,16
1555579737.01739,-50,39,16
1555579737.04864,-51,38,17
1555579737.07989,-52,37,19
1555579737.11114,-51,36,19
1555579737.14239,-51,36,17
1555579737.17364,-51,36,16
1555579737.20489,-52,36,15
1555579737.23615,-51,37,16
1555579737.2674,-50,37,17
1555579737.29865,-50,38,18
1555579737.3299,-51,38,18
1555579737.36115,-53,38,18
1555579737.3924,-54,37,17
1555579737.42365,-52,37,17
1555579737.45491,-51,37,16
1555579737.48616,-51,37,17
1555579737.51741,-51,37,17
1555579737.54866,-54,37,17
1555579737.57991,-53,36,17
1555579737.61116,-51,35,18
1555579737.64241,-51,35,18
1555579737.67367,-51,35,19
1555579737.70492,-51,36,19
1555579737.73617,-51,35,20
1555579737.76742,-50,36,20
1555579737.79867,-51,35,20
1555579737.82992,-49,34,21
1555579737.86117,-47,33,21
1555579737.89243,-46,33,22
1555579737.92368,-46,35,25
1555579737.95493,-48,36,26
1555579737.98618,-50,37,26
1555579738.01743,-50,38,25
1555579738.04868,-49,38,22
1555579738.07993,-52,40,14
1555579738.11119,-57,42,10
1555579738.14244,-61,35,5
1555579738.17369,-58,35,5
1555579738.20494,-52,36,12
1555579738.23619,-50,36,16
1555579738.26744,-47,37,23
1555579738.29869,-48,37,24
1555579738.32995,-49,40,23
1555579738.3612,-49,40,18
1555579738.39245,-48,41,16
1555579738.4237,-47,40,15
1555579738.45495,-51,40,13
1555579738.4862,-51,41,17
1555579738.51745,-52,41,18
1555579738.54871,-47,38,20
1555579738.57996,-46,40,21
1555579738.61121,-51,39,17
1555579738.64246,-55,38,15
1555579738.67371,-53,37,12
1555579738.70496,-50,39,13
1555579738.73621,-49,40,16
1555579738.76747,-49,40,18
1555579738.79872,-50,40,18
1555579738.82997,-48,39,19
1555579738.86122,-49,38,18
1555579738.89247,-50,39,17
1555579738.92372,-50,39,17
1555579738.95497,-49,39,17
1555579738.98623,-50,39,17
1555579739.01748,-51,39,16
1555579739.04873,-51,38,15
1555579739.07998,-51,37,15
1555579739.11123,-52,37,15
1555579739.14248,-52,37,16
1555579739.17373,-51,39,17
1555579739.20499,-50,39,17
1555579739.23624,-50,39,17
1555579739.26749,-50,38,17
1555579739.29874,-50,38,16
1555579739.32999,-50,39,16
1555579739.36124,-50,39,16
1555579739.39249,-51,38,16
1555579739.42375,-51,38,16
1555579739.455,-51,38,16
1555579739.48625,-51,39,16
1555579739.5175,-51,39,16
1555579739.54875,-51,38,16
1555579739.58,-50,39,16
1555579739.61125,-50,39,16
1555579739.64251,-50,39,16
1555579739.67376,-50,39,16
1555579739.70501,-50,39,16
1555579739.73626,-50,39,16
1555579739.76751,-50,39,16
1555579739.79876,-50,38,16
1555579739.83002,-51,37,16
1555579739.86127,-50,36,16
1555579739.89252,-49,40,17
1555579739.92377,-53,39,14
1555579739.95502,-52,38,15
1555579739.98627,-50,39,16
1555579740.01752,-51,39,16
1555579740.04878,-55,38,13
1555579740.08003,-54,36,13
1555579740.11128,-48,38,16
1555579740.14253,-48,39,18
1555579740.17378,-52,39,17
1555579740.20503,-53,38,15
1555579740.23628,-49,37,14
1555579740.26754,-49,38,15
1555579740.29879,-53,38,16
1555579740.33004,-53,37,15
1555579740.36129,-50,37,16
1555579740.39254,-48,37,18
1555579740.42379,-49,40,19
1555579740.45504,-54,38,15
1555579740.4863,-53,37,14
1555579740.51755,-52,38,13
1555579740.5488,-52,39,14
1555579740.58005,-54,38,15
1555579740.6113,-50,36,15
1555579740.64255,-48,38,17
1555579740.6738,-51,39,17
1555579740.70506,-53,38,15
1555579740.73631,-51,37,15
1555579740.76756,-48,39,16
1555579740.79881,-52,39,17
1555579740.83006,-53,38,16
1555579740.86131,-51,37,15
1555579740.89256,-51,37,16
1555579740.92382,-52,38,17
1555579740.95507,-53,38,16
1555579740.98632,-52,37,15
1555579741.01757,-51,37,15
1555579741.04882,-51,37,15
1555579741.08007,-51,37,16
1555579741.11132,-51,38,16
1555579741.14258,-51,37,16
1555579741.17383,-51,37,15
1555579741.20508,-51,38,16
1555579741.23633,-51,37,16
1555579741.26758,-51,37,16
1555579741.29883,-51,37,16
1555579741.33008,-52,37,16
1555579741.36134,-52,37,16
1555579741.39259,-51,37,16
1555579741.42384,-51,37,16
1555579741.45509,-51,37,16
1555579741.48634,-51,37,16
1555579741.51759,-52,37,16
1555579741.54884,-52,37,16
1555579741.5801,-51,37,16
1555579741.61135,-52,37,16
1555579741.6426,-52,37,16
1555579741.67385,-52,37,16
1555579741.7051,-52,37,16
1555579741.73635,-51,37,16
1555579741.7676,-51,37,16
1555579741.79886,-52,37,16
1555579741.83011,-52,37,15
1555579741.86136,-52,37,16
1555579741.89261,-52,37,16
1555579741.92386,-51,37,16
1555579741.95511,-51,37,16
1555579741.98636,-52,37,16
1555579742.01762,-52,37,16
1555579742.04887,-52,37,16
1555579742.08012,-52,37,16
1555579742.11137,-52,37,16
1555579742.14262,-52,37,15
1555579742.17387,-52,37,16
1555579742.20513,-52,37,16
1555579742.23638,-51,37,16
1555579742.26763,-52,37,16
1555579742.29888,-51,37,16
1555579742.33013,-51,37,16
1555579742.36138,-51,37,16
1555579742.39263,-51,37,16
1555579742.42389,-52,37,16
1555579742.45514,-52,37,16
1555579742.48639,-52,37,16
1555579742.51764,-52,36,16
1555579742.54889,-51,36,16
1555579742.58014,-52,36,16
1555579742.61139,-52,37,16
1555579742.64265,-52,37,16
1555579742.6739,-52,37,16
1555579742.70515,-52,37,16
1555579742.7364,-52,36,16
1555579742.76765,-52,36,16
1555579742.7989,-52,36,16
1555579742.83015,-52,37,16
1555579742.86141,-52,37,16
1555579742.89266,-52,37,16
1555579742.92391,-52,36,16
1555579742.95516,-52,36,16
1555579742.98641,-52,36,16
1555579743.01766,-52,37,16
1555579743.04891,-52,36,16
1555579743.08017,-52,36,16
1555579743.11142,-52,36,16
1555579743.14267,-52,37,16
1555579743.17392,-52,36,16
1555579743.20517,-52,36,16
1555579743.23642,-52,36,16
1555579743.26767,-52,36,16
1555579743.29893,-52,36,16
1555579743.33018,-52,36,16
1555579743.36143,-52,36,16
1555579743.39268,-52,36,16
1555579743.42393,-52,36,16
1555579743.45518,-52,36,16
1555579743.48643,-52,36,16
1555579743.51769,-52,36,16
1555579743.54894,-52,36,16
1555579743.58019,-52,36,16
1555579743.61144,-52,36,16
1555579743.64269,-52,36,16
1555579743.67394,-52,36,16
1555579743.70519,-52,36,16
1555579743.73645,-52,36,16
1555579743.7677,-52,36,16
1555579743.79895,-52,36,16
1555579743.8302,-52,36,16
1555579743.86145,-52,36,16
1555579743.8927,-52,36,16
1555579743.92395,-52,36,16
1555579743.95521,-52,36,16
1555579743.98646,-52,36,16
1555579744.01771,-52,36,16
1555579744.04896,-52,36,16
1555579744.08021,-52,36,16
1555579744.11146,-52,36,16
1555579744.14271,-52,36,16
1555579744.17397,-52,37,16
1555579744.20522,-52,36,16
1555579744.23647,-52,37,16
1555579744.26772,-52,37,16
1555579744.29897,-52,37,16
1555579744.33022,-51,37,16
1555579744.36147,-52,37,16
1555579744.39273,-52,37,16
1555579744.42398,-52,37,16
1555579744.45523,-52,36,16
1555579744.48648,-52,36,16
1555579744.51773,-52,36,16
1555579744.54898,-52,36,16
1555579744.58024,-52,36,16
1555579744.61149,-52,36,16
1555579744.64274,-52,36,16
1555579744.67399,-52,36,16
1555579744.70524,-52,36,16
1555579744.73649,-52,36,16
1555579744.76774,-52,36,16
1555579744.799,-52,36,16
1555579744.83025,-52,36,16
1555579744.8615,-52,36,16
1555579744.89275,-52,36,16
1555579744.924,-52,36,16
1555579744.95525,-52,36,16
1555579744.9865,-52,36,16
1555579745.01776,-52,36,16
1555579745.04901,-52,36,16
1555579745.08026,-52,36,16
1555579745.11151,-52,36,16
1555579745.14276,-52,36,16
1555579745.17401,-52,36,16
1555579745.20526,-52,36,16
1555579745.23652,-52,36,16
1555579745.26777,-52,36,16
1555579745.29902,-52,36,16
1555579745.33027,-52,36,16
1555579745.36152,-52,36,16
1555579745.39277,-52,36,16
1555579745.42402,-52,36,16
1555579745.45528,-52,36,16
1555579745.48653,-52,36,16
1555579745.51778,-52,36,16
1555579745.54903,-52,36,16
1555579745.58028,-52,36,16
1555579745.61153,-52,36,16
1555579745.64278,-52,36,16
1555579745.67404,-52,36,16
1555579745.70529,-52,36,16
1555579745.73654,-52,36,16
1555579745.76779,-52,36,16
1555579745.79904,-52,36,16
1555579745.83029,-52,36,16
1555579745.86154,-52,36,16
1555579745.8928,-52,36,16
1555579745.92405,-52,36,16
1555579745.9553,-52,36,16
1555579745.98655,-52,36,16
1555579746.0178,-52,36,16
1555579746.04905,-52,36,16
1555579746.0803,-52,36,16
1555579746.11156,-52,36,16
1555579746.14281,-52,36,16
1555579746.17406,-52,36,16
1555579746.20531,-52,36,16
1555579746.23656,-52,36,16
1555579746.26781,-52,36,16
1555579746.29906,-52,36,16
1555579746.33032,-52,36,16
1555579746.36157,-52,36,16
1555579746.39282,-52,36,16
1555579746.42407,-52,36,16
1555579746.45532,-52,36,16
1555579746.48657,-52,36,16
1555579746.51782,-52,36,16
1555579746.54908,-52,36,16
1555579746.58033,-52,36,16
1555579746.61158,-52,36,16
1555579746.64283,-52,36,16
1555579746.67408,-52,36,16
1555579746.70533,-52,36,16
1555579746.73658,-52,36,16
1555579746.76784,-52,36,16
1555579746.79909,-52,36,16
1555579746.83034,-52,36,16
1555579746.86159,-52,36,16
1555579746.89284,-52,36,16
1555579746.92409,-52,36,16
1555579746.95534,-52,36,16
1555579746.9866,-52,36,16
1555579747.01785,-52,36,16
1555579747.0491,-52,36,16
1555579747.08035,-52,36,16
1555579747.1116,-52,36,16
1555579747.14285,-52,36,16
1555579747.17411,-52,36,16
1555579747.20536,-52,36,16
1555579747.23661,-52,36,16
1555579747.26786,-52,36,16
1555579747.29911,-52,36,16
1555579747.33036,-52,36,16
1555579747.36161,-52,36,16
1555579747.39287,-52,36,16
1555579747.42412,-52,36,16
1555579747.45537,-52,36,16
1555579747.48662,-52,36,16
1555579747.51787,-52,36,16
1555579747.54912,-52,36,16
1555579747.58037,-52,36,16
1555579747.61163,-52,36,16
1555579747.64288,-52,36,16
1555579747.67413,-52,36,16
1555579747.70538,-52,36,16
1555579747.73663,-52,36,16
1555579747.76788,-52,36,16
1555579747.79913,-52,36,16
1555579747.83039,-52,36,16
1555579747.86164,-52,36,16
1555579747.89289,-52,36,16
1555579747.92414,-52,36,16
1555579747.95539,-52,36,16
1555579747.98664,-52,36,16
1555579748.01789,-52,36,16
1555579748.04915,-52,36,16
1555579748.0804,-52,36,16
1555579748.11165,-52,36,16
1555579748.1429,-52,36,16
1555579748.17415,-52,36,16
1555579748.2054,-52,36,16
1555579748.23665,-52,36,16
1555579748.26791,-52,36,16
1555579748.29916,-52,36,16
1555579748.33041,-52,36,16
1555579748.36166,-52,36,16
1555579748.39291,-52,36,16
1555579748.42416,-52,36,16
1555579748.45541,-52,36,16
1555579748.48667,-52,36,16
1555579748.51792,-52,36,16
1555579748.54917,-52,36,16
1555579748.58042,-52,36,16
1555579748.61167,-52,36,16
1555579748.64292,-52,36,16
1555579748.67417,-52,36,16
1555579748.70543,-52,36,16
1555579748.73668,-52,36,16
1555579748.76793,-52,36,16
1555579748.79918,-52,36,16
1555579748.83043,-52,36,16
1555579748.86168,-52,36,16
1555579748.89293,-52,36,16
1555579748.92419,-52,36,16
1555579748.95544,-52,36,16
1555579748.98669,-52,36,16
1555579749.01794,-52,36,16
1555579749.04919,-52,36,16
1555579749.08044,-52,36,16
1555579749.11169,-52,36,16
1555579749.14295,-52,36,16
1555579749.1742,-52,36,16
1555579749.20545,-52,36,16
1555579749.2367,-52,36,16
1555579749.26795,-52,36,16
1555579749.2992,-52,36,16
1555579749.33046,-52,36,16
1555579749.36171,-52,36,16
1555579749.39296,-52,36,16
1555579749.42421,-52,36,16
1555579749.45546,-52,36,16
1555579749.48671,-52,36,16
1555579749.51796,-52,36,15
1555579749.54922,-52,36,15
1555579749.58047,-53,36,15
1555579749.61172,-52,36,15
1555579749.64297,-52,36,16
1555579749.67422,-52,36,16
1555579749.70547,-52,36,16
1555579749.73672,-52,36,16
1555579749.76798,-52,36,16
1555579749.79923,-52,36,16
1555579749.83048,-52,36,15
1555579749.86173,-52,36,15
1555579749.89298,-52,37,16
1555579749.92423,-52,36,16
1555579749.95548,-52,37,15
1555579749.98674,-52,36,15
1555579750.04924,-52,36,16
1555579750.01799,-52,37,16
1555579750.08049,-52,37,16
1555579750.11174,-52,37,16
1555579750.14299,-52,37,15
1555579750.17424,-52,37,16
1555579750.2055,-52,37,15
1555579750.23675,-52,36,16
1555579750.268,-52,36,15
1555579750.29925,-52,37,16
1555579750.3305,-52,37,15
1555579750.36175,-52,36,15
1555579750.393,-52,37,16
1555579750.42426,-52,36,16
1555579750.45551,-52,37,16
1555579750.48676,-52,37,16
1555579750.51801,-52,37,15
1555579750.54926,-52,37,15
1555579750.58051,-52,37,15
1555579750.61176,-52,37,15
1555579750.64302,-52,36,15
1555579750.67427,-52,37,15
1555579750.70552,-52,37,15
1555579750.73677,-52,36,15
1555579750.76802,-52,36,15
1555579750.79927,-52,37,15
1555579750.83052,-52,37,15
1555579750.86178,-52,37,15
1555579750.89303,-52,37,15
1555579750.92428,-52,36,15
1555579750.95553,-52,36,15
1555579750.98678,-52,37,15
1555579751.01803,-53,36,15
1555579751.04928,-52,36,15
1555579751.08054,-52,36,15
1555579751.11179,-52,36,16
1555579751.14304,-52,36,15
1555579751.17429,-52,36,15
1555579751.20554,-52,36,15
1555579751.23679,-53,36,15
1555579751.26804,-52,36,15
1555579751.2993,-52,36,15
1555579751.33055,-52,36,16
1555579751.3618,-52,36,15
1555579751.39305,-52,36,15
1555579751.4243,-53,36,15
1555579751.45555,-52,36,15
1555579751.4868,-52,36,15
1555579751.51806,-52,36,16
1555579751.54931,-52,37,16
1555579751.58056,-52,36,15
1555579751.61181,-52,36,16
1555579751.64306,-52,36,16
1555579751.67431,-52,36,16
1555579751.70556,-52,36,16
1555579751.73682,-53,36,16
1555579751.76807,-52,36,16
1555579751.79932,-52,36,16
1555579751.83057,-52,36,16
1555579751.86182,-52,36,16
1555579751.89307,-52,36,16
1555579751.92432,-52,36,16
1555579751.95558,-52,36,16
1555579751.98683,-52,36,16
1555579752.01808,-52,36,16
1555579752.04933,-52,36,16
1555579752.08058,-52,36,16
1555579752.11183,-52,36,16
1555579752.14309,-52,36,16
1555579752.17434,-52,36,16
1555579752.20559,-52,36,16
1555579752.23684,-52,36,16
1555579752.26809,-53,36,16
1555579752.29934,-52,36,16
1555579752.33059,-53,36,16
1555579752.36185,-52,36,16
1555579752.3931,-52,36,16
1555579752.42435,-52,36,16
1555579752.4556,-52,36,16
1555579752.48685,-53,36,15
1555579752.5181,-53,36,16
1555579752.54935,-53,36,16
1555579752.58061,-52,36,16
1555579752.61186,-52,36,16
1555579752.64311,-53,36,16
1555579752.67436,-52,36,16
1555579752.70561,-52,36,16
1555579752.73686,-52,36,15
1555579752.76811,-52,36,16
1555579752.79937,-53,36,16
1555579752.83062,-53,36,16
1555579752.86187,-53,36,15
1555579752.89312,-53,36,16
1555579752.92437,-52,36,16
1555579752.95562,-52,36,15
1555579752.98687,-52,36,16
1555579753.01813,-52,36,16
1555579753.04938,-52,36,16
1555579753.08063,-53,36,16
1555579753.11188,-52,36,16
1555579753.14313,-52,36,16
1555579753.17438,-52,36,16
1555579753.20563,-52,36,16
1555579753.23689,-53,36,16
1555579753.26814,-52,36,16
1555579753.29939,-52,36,16
1555579753.33064,-52,36,16
1555579753.36189,-53,36,16
1555579753.39314,-52,36,16
1555579753.42439,-52,36,16
1555579753.45565,-52,36,16
1555579753.4869,-52,36,16
1555579753.51815,-52,36,16
1555579753.5494,-52,36,16
1555579753.58065,-53,36,16
1555579753.6119,-52,36,16
1555579753.64315,-53,36,16
1555579753.67441,-52,36,16
1555579753.70566,-52,36,16
1555579753.73691,-52,36,16
1555579753.76816,-53,36,16
1555579753.79941,-53,36,16
1555579753.83066,-52,36,16
1555579753.86191,-52,36,16
1555579753.89317,-52,36,16
1555579753.92442,-53,36,15
1555579753.95567,-52,36,16
1555579753.98692,-53,36,16
1555579754.01817,-52,36,16
1555579754.04942,-52,36,16
1555579754.08067,-53,36,16
1555579754.11193,-52,36,16
1555579754.14318,-52,36,16
1555579754.17443,-52,36,16
1555579754.20568,-52,36,16
1555579754.23693,-53,36,16
1555579754.26818,-52,36,16
1555579754.29943,-52,36,16
1555579754.33069,-53,36,16
1555579754.36194,-52,36,16
1555579754.39319,-52,36,16
1555579754.42444,-52,36,16
1555579754.45569,-52,36,16
1555579754.48694,-52,36,16
1555579754.5182,-52,36,16
1555579754.54945,-52,36,16
1555579754.5807,-52,36,16
1555579754.61195,-52,36,16
1555579754.6432,-53,36,16
1555579754.67445,-53,36,16
1555579754.7057,-52,36,16
1555579754.73696,-52,36,15
1555579754.76821,-52,36,16
1555579754.79946,-52,36,16
1555579754.83071,-53,36,16
1555579754.86196,-53,36,16
1555579754.89321,-52,36,16
1555579754.92446,-52,36,16
1555579754.95572,-52,36,16
1555579754.98697,-52,36,16
1555579755.01822,-52,36,16
1555579755.04947,-53,36,16
1555579755.08072,-53,36,16
1555579755.11197,-52,36,16
1555579755.14322,-52,36,16
1555579755.17448,-52,36,16
1555579755.20573,-52,36,16
1555579755.23698,-53,36,16
1555579755.26823,-53,36,16
1555579755.29948,-52,36,16
1555579755.33073,-52,36,16
1555579755.36198,-52,36,16
1555579755.39324,-52,36,16
1555579755.42449,-52,36,16
1555579755.45574,-52,36,16
1555579755.48699,-52,36,16
1555579755.51824,-53,36,16
1555579755.64325,-52,36,16
1555579755.6745,-52,36,16
1555579755.54949,-52,36,16
1555579755.58074,-52,36,16
1555579755.612,-52,36,16
1555579755.70575,-52,36,16
1555579755.737,-53,36,16
1555579755.76825,-53,36,16
1555579755.7995,-52,36,16
1555579755.83076,-52,36,16
1555579755.86201,-52,36,16
1555579755.89326,-52,36,16
1555579755.92451,-52,36,16
1555579755.95576,-53,36,16
1555579755.98701,-53,36,16
1555579756.01826,-52,36,16
1555579756.04952,-52,36,16
1555579756.08077,-52,36,15
1555579756.11202,-52,36,15
1555579756.14327,-52,36,15
1555579756.17452,-52,36,16
1555579756.20577,-52,36,16
1555579756.23702,-52,36,16
1555579756.26828,-52,36,16
1555579756.29953,-52,36,16
1555579756.33078,-52,36,15
1555579756.36203,-52,36,16
1555579756.39328,-52,36,16
1555579756.42453,-52,36,16
1555579756.45578,-52,36,15
1555579756.48704,-52,37,15
1555579756.51829,-52,36,15
1555579756.54954,-52,36,15
1555579756.58079,-52,36,15
1555579756.61204,-52,37,16
1555579756.64329,-52,37,15
1555579756.67455,-52,37,15
1555579756.7058,-52,37,16
1555579756.73705,-52,36,16
1555579756.7683,-51,36,16
1555579756.79955,-52,37,15
1555579756.8308,-52,37,15
1555579756.86205,-52,36,15
1555579756.89331,-52,36,16
1555579756.92456,-52,37,16
1555579756.95581,-52,36,16
1555579756.98706,-52,36,15
1555579757.01831,-52,36,15
1555579757.04956,-52,36,15
1555579757.08081,-52,36,16
1555579757.11207,-52,36,16
1555579757.14332,-52,36,15
1555579757.17457,-52,37,16
1555579757.20582,-52,36,16
1555579757.23707,-52,36,15
1555579757.26832,-52,36,16
1555579757.29957,-52,36,15
1555579757.33083,-52,36,16
1555579757.36208,-52,36,16
1555579757.39333,-52,36,16
1555579757.42458,-52,36,16
1555579757.45583,-52,36,16
1555579757.48708,-52,36,15
1555579757.51833,-52,36,15
1555579757.54959,-52,36,16
1555579757.58084,-52,36,16
1555579757.61209,-52,36,16
1555579757.64334,-52,36,16
1555579757.67459,-52,36,16
1555579757.70584,-52,36,16
1555579757.73709,-52,36,16
1555579757.76835,-52,36,16
1555579757.7996,-52,36,16
1555579757.83085,-52,36,16
1555579757.8621,-52,36,16
1555579757.89335,-52,36,16
1555579757.9246,-52,36,16
1555579757.95585,-52,36,16
1555579757.98711,-52,36,16
1555579758.01836,-52,36,16
1555579758.04961,-52,36,16
1555579758.08086,-52,36,16
1555579758.11211,-52,36,16
1555579758.14336,-52,36,16
1555579758.17461,-52,36,15
1555579758.20587,-52,36,16
1555579758.23712,-52,36,16
1555579758.26837,-52,36,16
1555579758.29962,-52,36,16
1555579758.33087,-52,36,16
1555579758.36212,-52,36,16
1555579758.39337,-52,36,16
1555579758.42463,-52,36,16
1555579758.45588,-52,36,16
1555579758.48713,-53,36,16
1555579758.51838,-53,36,16
1555579758.54963,-52,36,16
1555579758.58088,-52,36,16
1555579758.61213,-53,36,16
1555579758.64339,-52,36,16
1555579758.67464,-53,36,16
1555579758.70589,-53,36,15
1555579758.73714,-53,36,16
1555579758.76839,-53,36,16
1555579758.79964,-52,36,16
1555579758.83089,-52,36,16
1555579758.86215,-53,36,15
1555579758.8934,-52,36,16
1555579758.92465,-52,36,16
1555579758.9559,-52,36,16
1555579758.98715,-52,36,16
1555579759.0184,-52,36,16
1555579759.04965,-53,36,16
1555579759.08091,-52,36,16
1555579759.11216,-52,36,16
1555579759.14341,-53,36,16
1555579759.17466,-52,36,16
1555579759.20591,-52,36,16
1555579759.23716,-52,36,16
1555579759.26841,-52,36,16
1555579759.29967,-53,36,16
1555579759.33092,-53,36,16
1555579759.36217,-53,36,16
1555579759.39342,-52,36,16
1555579759.42467,-52,36,16
1555579759.45592,-52,36,16
1555579759.48718,-52,36,16
1555579759.51843,-53,36,15
1555579759.54968,-53,36,16
1555579759.58093,-53,36,16
1555579759.61218,-52,36,16
1555579759.64343,-53,36,16
1555579759.67468,-53,36,16
1555579759.70594,-53,36,16
1555579759.73719,-53,36,16
1555579759.76844,-52,36,16
1555579759.79969,-53,36,16
1555579759.83094,-53,36,16
1555579759.86219,-52,36,16
1555579759.89344,-52,36,16
1555579759.9247,-52,36,16
1555579759.95595,-53,36,15
1555579759.9872,-53,35,16
1555579760.01845,-53,35,17
1555579760.0497,-52,36,16
1555579760.08095,-52,36,15
1555579760.1122,-52,36,15
1555579760.14346,-52,36,16
1555579760.17471,-52,36,17
1555579760.20596,-52,36,17
1555579760.23721,-52,36,17
1555579760.26846,-52,36,16
1555579760.29971,-52,36,15
1555579760.33096,-52,36,16
1555579760.36222,-52,36,16
1555579760.39347,-52,35,16
1555579760.42472,-52,36,16
1555579760.45597,-53,36,16
1555579760.48722,-53,36,16
1555579760.51847,-53,36,16
1555579760.54972,-52,36,16
1555579760.58098,-52,36,16
1555579760.61223,-52,35,16
1555579760.64348,-53,36,16
1555579760.67473,-53,36,16
1555579760.70598,-53,36,16
1555579760.73723,-53,36,16
1555579760.76848,-53,36,16
1555579760.79974,-53,35,15
1555579760.83099,-53,36,16
1555579760.86224,-53,35,16
1555579760.89349,-53,35,16
1555579760.92474,-52,36,17
1555579760.95599,-52,37,15
1555579760.98724,-52,37,15
1555579761.0185,-52,36,15
1555579761.04975,-53,36,16
1555579761.081,-52,36,18
1555579761.11225,-52,36,18
1555579761.1435,-52,36,16
1555579761.17475,-53,36,16
1555579761.206,-52,36,15
1555579761.23726,-53,36,15
1555579761.26851,-53,36,16
1555579761.29976,-52,36,16
1555579761.33101,-53,37,16
1555579761.36226,-52,36,15
1555579761.39351,-52,36,15
1555579761.42476,-54,36,16
1555579761.45602,-53,35,16
1555579761.48727,-52,36,16
1555579761.51852,-52,36,16
1555579761.54977,-53,36,16
1555579761.58102,-53,36,15
1555579761.61227,-53,35,15
1555579761.64353,-54,35,15
1555579761.67478,-53,34,16
1555579761.70603,-53,34,15
1555579761.73728,-54,36,15
1555579761.76853,-54,36,15
1555579761.79978,-54,36,14
1555579761.83103,-53,36,15
1555579761.86229,-53,36,15
1555579761.89354,-52,36,15
1555579761.92479,-53,36,15
1555579761.95604,-53,36,16
1555579761.98729,-53,36,16
1555579762.01854,-53,36,15
1555579762.04979,-53,36,16
1555579762.08105,-53,35,15
1555579762.1123,-53,36,15
1555579762.14355,-52,36,15
1555579762.1748,-52,36,16
1555579762.20605,-52,36,16
1555579762.2373,-53,36,16
1555579762.26855,-53,36,16
1555579762.29981,-52,36,16
1555579762.33106,-52,36,16
1555579762.36231,-52,36,16
1555579762.39356,-52,36,16
1555579762.42481,-53,36,16
1555579762.45606,-52,36,16
1555579762.48731,-52,36,16
1555579762.51857,-52,36,16
1555579762.54982,-53,35,15
1555579762.58107,-52,35,16
1555579762.61232,-53,36,16
1555579762.64357,-52,36,16
1555579762.67482,-52,36,16
1555579762.70607,-52,36,16
1555579762.73733,-52,36,16
1555579762.76858,-53,36,15
1555579762.79983,-53,36,15
1555579762.83108,-52,36,17
1555579762.86233,-52,36,17
1555579762.89358,-52,36,17
1555579762.92483,-51,35,16
1555579762.95609,-51,36,16
1555579762.98734,-51,37,16
1555579763.01859,-53,36,17
1555579763.04984,-54,36,16
1555579763.08109,-54,35,15
1555579763.11234,-54,36,14
1555579763.14359,-54,37,14
1555579763.17485,-57,34,13
1555579763.2061,-55,33,14
1555579763.23735,-49,34,18
1555579763.2686,-50,34,17
1555579763.29985,-52,38,16
1555579763.3311,-51,39,18
1555579763.36235,-47,40,18
1555579763.39361,-51,38,18
1555579763.42486,-53,37,16
1555579763.45611,-51,37,18
1555579763.48736,-50,36,19
1555579763.51861,-52,37,19
1555579763.54986,-55,36,17
1555579763.58111,-53,35,16
1555579763.61237,-50,35,17
1555579763.64362,-49,37,18
1555579763.67487,-49,39,18
1555579763.70612,-52,38,16
1555579763.73737,-51,36,16
1555579763.76862,-51,36,17
1555579763.79987,-51,36,18
1555579763.83113,-48,36,21
1555579763.86238,-47,37,21
1555579763.89363,-47,39,21
1555579763.92488,-49,44,17
1555579763.95613,-55,41,12
1555579763.98738,-53,36,11
1555579764.01864,-52,38,12
1555579764.04989,-52,38,18
1555579764.08114,-55,39,18
1555579764.11239,-54,36,17
1555579764.14364,-52,34,15
1555579764.17489,-54,33,14
1555579764.20614,-55,33,15
1555579764.2374,-51,35,17
1555579764.26865,-48,36,18
1555579764.2999,-49,39,15
1555579764.33115,-53,40,14
1555579764.3624,-54,40,12
1555579764.39365,-56,39,10
1555579764.4249,-55,38,11
1555579764.45616,-53,38,13
1555579764.48741,-53,39,14
1555579764.51866,-52,39,17
1555579764.54991,-51,39,16
1555579764.58116,-50,39,18
1555579764.61241,-52,37,18
1555579764.64366,-53,37,17
1555579764.67492,-53,36,18
1555579764.70617,-52,36,19
1555579764.73742,-50,36,21
1555579764.76867,-49,36,22
1555579764.79992,-49,37,25
1555579764.83117,-49,37,25
1555579764.86242,-49,36,25
1555579764.89368,-50,36,25
1555579764.92493,-52,36,27
1555579764.95618,-51,36,27
1555579764.98743,-51,35,26
1555579765.01868,-50,33,29
1555579765.04993,-43,32,33
1555579765.08118,-41,31,34
1555579765.11244,-41,28,35
1555579765.14369,-37,30,36
1555579765.17494,-36,31,34
1555579765.20619,-36,31,33
1555579765.23744,-41,34,31
1555579765.26869,-40,39,24
1555579765.29994,-40,41,25
1555579765.3312,-42,38,30
1555579765.36245,-44,39,30
1555579765.3937,-34,43,49
1555579765.42495,-32,37,46
1555579765.4562,-30,34,38
1555579765.48745,-29,31,39
1555579765.5187,-29,33,37
1555579765.54996,-31,36,39
1555579765.58121,-30,37,39
1555579765.61246,-29,41,47
1555579765.64371,-28,40,46
1555579765.67496,-28,40,38
1555579765.70621,-28,39,34
1555579765.73746,-18,44,47
1555579765.76872,-14,46,52
1555579765.79997,-11,44,47
1555579765.83122,-14,45,40
1555579765.86247,-19,49,37
1555579765.89372,-19,44,42
1555579765.92497,-18,42,43
1555579765.95622,-18,43,42
1555579765.98748,-15,44,46
1555579766.01873,-16,46,43
1555579766.04998,-18,48,42
1555579766.08123,-22,45,38
1555579766.11248,-22,46,39
1555579766.14373,-18,45,39
1555579766.17498,-14,43,41
1555579766.20624,-25,44,41
1555579766.23749,-22,44,45
1555579766.26874,-23,41,44
1555579766.29999,-27,43,40
1555579766.33124,-24,44,39
1555579766.36249,-26,42,42
1555579766.39374,-21,42,42
1555579766.425,-12,43,42
1555579766.45625,-15,45,43
1555579766.4875,-19,45,50
1555579766.51875,-18,43,48
1555579766.55,-16,42,45
1555579766.58125,-14,41,44
1555579766.6125,-16,40,45
1555579766.64376,-19,40,45
1555579766.67501,-17,36,46
1555579766.70626,-14,34,45
1555579766.73751,-17,35,46
1555579766.76876,-15,36,48
1555579766.80001,-16,36,51
1555579766.83127,-21,33,43
1555579766.86252,-21,33,46
1555579766.89377,-18,37,47
1555579766.92502,-19,37,48
1555579766.95627,-15,38,46
1555579766.98752,-17,37,49
1555579767.01877,-18,39,46
1555579767.05003,-16,40,45
1555579767.08128,-17,41,47
1555579767.11253,-19,39,48
1555579767.14378,-15,38,53
1555579767.17503,-14,35,47
1555579767.20628,-16,34,41
1555579767.23753,-16,38,52
1555579767.26879,-10,36,54
1555579767.30004,-15,35,46
1555579767.33129,-14,36,47
1555579767.36254,-17,40,48
1555579767.39379,-19,38,46
1555579767.42504,-11,37,49
1555579767.45629,-13,43,53
1555579767.48755,-24,35,42
1555579767.5188,-21,33,47
1555579767.55005,-21,35,47
1555579767.5813,-25,33,47
1555579767.61255,-24,33,49
1555579767.6438,-31,35,44
1555579767.67505,-33,33,43
1555579767.70631,-34,32,43
1555579767.73756,-35,31,45
1555579767.76881,-37,30,43
1555579767.80006,-36,30,44
1555579767.83131,-38,30,45
1555579767.86256,-39,29,43
1555579767.89381,-40,28,39
1555579767.92507,-41,28,37
1555579767.95632,-43,28,35
1555579767.98757,-44,30,38
1555579768.01882,-44,29,38
1555579768.05007,-44,30,38
1555579768.08132,-45,30,37
1555579768.11257,-46,29,33
1555579768.14383,-47,30,31
1555579768.17508,-48,30,31
1555579768.20633,-48,30,31
1555579768.23758,-47,30,33
1555579768.26883,-46,29,33
1555579768.30008,-45,29,31
1555579768.33133,-50,30,28
1555579768.36259,-46,28,30
1555579768.39384,-42,38,30
1555579768.42509,-57,40,23
1555579768.45634,-59,37,17
1555579768.48759,-58,38,16
1555579768.51884,-61,37,6
1555579768.55009,-57,34,7
1555579768.58135,-49,32,23
1555579768.6126,-48,31,32
1555579768.64385,-46,28,39
1555579768.6751,-42,29,42
1555579768.70635,-41,31,40
1555579768.7376,-44,32,33
1555579768.76885,-45,32,32
1555579768.80011,-48,33,29
1555579768.83136,-48,33,28
1555579768.86261,-48,32,30
1555579768.89386,-47,32,31
1555579768.92511,-46,33,32
1555579768.95636,-44,33,33
1555579768.98762,-46,33,34
1555579769.01887,-46,33,33
1555579769.05012,-47,33,31
1555579769.08137,-48,33,31
1555579769.11262,-47,33,29
1555579769.14387,-49,31,28
1555579769.17512,-49,31,27
1555579769.20638,-48,30,31
1555579769.23763,-46,28,32
1555579769.26888,-47,28,32
1555579769.30013,-43,29,35
1555579769.33138,-50,31,27
1555579769.36263,-49,33,27
1555579769.39388,-48,34,29
1555579769.42514,-48,35,29
1555579769.45639,-46,34,32
1555579769.48764,-47,34,31
1555579769.51889,-47,34,30
1555579769.55014,-47,33,30
1555579769.58139,-47,33,29
1555579769.61264,-48,33,29
1555579769.6439,-48,33,29
1555579769.67515,-47,33,30
1555579769.7064,-47,33,30
1555579769.73765,-48,33,30
1555579769.7689,-48,33,30
1555579769.80015,-47,33,30
1555579769.8314,-48,33,30
1555579769.86266,-48,33,30
1555579769.89391,-47,33,30
1555579769.92516,-47,34,30
1555579769.95641,-47,33,30
1555579769.98766,-47,33,30
1555579770.01891,-47,33,29
1555579770.05016,-48,34,29
1555579770.08142,-48,34,29
1555579770.11267,-48,34,29
1555579770.14392,-47,33,29
1555579770.17517,-47,34,29
1555579770.20642,-47,34,30
1555579770.23767,-47,34,29
1555579770.26892,-47,34,29
1555579770.30018,-47,34,29
1555579770.33143,-47,34,29
1555579770.36268,-47,34,29
1555579770.39393,-47,34,30
1555579770.42518,-47,34,30
1555579770.45643,-47,34,30
1555579770.48768,-47,34,29
1555579770.51894,-47,34,29
1555579770.55019,-47,34,29
1555579770.58144,-47,34,30
1555579770.61269,-47,34,30
1555579770.64394,-47,34,30
1555579770.67519,-47,34,29
1555579770.70644,-47,34,29
1555579770.7377,-47,34,30
1555579770.76895,-47,34,29
1555579770.8002,-47,34,29
1555579770.83145,-47,34,30
1555579770.8627,-47,34,30
1555579770.89395,-47,34,29
1555579770.9252,-47,34,30
1555579770.95646,-47,34,30
1555579770.98771,-47,34,30
1555579771.01896,-47,34,30
1555579771.05021,-47,34,30
1555579771.08146,-47,34,29
1555579771.11271,-47,34,29
1555579771.14396,-46,34,30
1555579771.17522,-46,34,30
1555579771.20647,-46,34,30
1555579771.23772,-46,34,30
1555579771.26897,-46,34,30
1555579771.30022,-47,34,30
1555579771.33147,-47,34,30
1555579771.36273,-46,34,30
1555579771.39398,-47,34,30
1555579771.42523,-46,34,30
1555579771.45648,-46,34,30
1555579771.48773,-47,34,30
1555579771.51898,-47,34,30
1555579771.55023,-46,34,30
1555579771.58149,-47,34,30
1555579771.61274,-46,34,30
1555579771.64399,-47,34,30
1555579771.67524,-47,34,30
1555579771.70649,-47,34,30
1555579771.73774,-47,34,30
1555579771.76899,-47,33,30
1555579771.80025,-47,33,30
1555579771.8315,-47,33,30
1555579771.86275,-47,33,30
1555579771.894,-47,34,30
1555579771.92525,-47,34,30
1555579771.9565,-47,34,30
1555579771.98775,-47,33,30
1555579772.01901,-47,33,30
1555579772.05026,-47,33,30
1555579772.08151,-47,33,30
1555579772.11276,-47,33,30
1555579772.14401,-47,33,30
1555579772.17526,-47,33,30
1555579772.20651,-47,33,30
1555579772.23777,-47,33,30
1555579772.26902,-47,33,30
1555579772.30027,-47,33,30
1555579772.33152,-47,33,30
1555579772.36277,-47,33,30
1555579772.39402,-47,33,30
1555579772.42527,-47,33,30
1555579772.45653,-47,33,30
1555579772.48778,-47,33,30
1555579772.51903,-47,33,30
1555579772.55028,-47,33,30
1555579772.58153,-47,33,30
1555579772.61278,-47,33,30
1555579772.64403,-47,34,30
1555579772.67529,-47,33,30
1555579772.70654,-47,33,30
1555579772.73779,-47,33,30
1555579772.76904,-47,33,30
1555579772.80029,-47,33,30
1555579772.83154,-47,33,30
1555579772.86279,-47,33,30
1555579772.89405,-47,33,30
1555579772.9253,-47,33,30
1555579772.95655,-47,33,30
1555579772.9878,-47,33,30
1555579773.01905,-47,33,30
1555579773.0503,-47,34,30
1555579773.08155,-47,33,30
1555579773.11281,-47,33,30
1555579773.14406,-47,33,30
1555579773.17531,-47,33,30
1555579773.20656,-47,33,30
1555579773.23781,-47,33,30
1555579773.26906,-47,33,30
1555579773.30031,-47,33,30
1555579773.33157,-47,34,30
1555579773.36282,-47,34,30
1555579773.39407,-47,33,30
1555579773.42532,-47,33,30
1555579773.45657,-47,33,30
1555579773.48782,-47,33,30
1555579773.51907,-47,33,30
1555579773.55033,-47,33,30
1555579773.58158,-47,33,30
1555579773.61283,-47,33,30
1555579773.64408,-47,33,30
1555579773.67533,-47,33,30
1555579773.70658,-47,33,30
1555579773.73783,-47,33,30
1555579773.76909,-47,33,30
1555579773.80034,-47,33,30
1555579773.83159,-47,33,30
1555579773.86284,-47,33,30
1555579773.89409,-47,33,30
1555579773.92534,-47,33,30
1555579773.9566,-47,33,30
1555579773.98785,-47,33,30
1555579774.0191,-47,33,30
1555579774.05035,-47,33,30
1555579774.0816,-47,33,30
1555579774.11285,-47,33,30
1555579774.1441,-47,33,30
1555579774.17536,-47,33,30
1555579774.20661,-47,33,30
1555579774.23786,-47,33,30
1555579774.26911,-47,33,30
1555579774.30036,-47,34,30
1555579774.33161,-47,33,30
1555579774.36286,-47,33,30
1555579774.39412,-47,33,30
1555579774.42537,-47,34,30
1555579774.45662,-47,34,30
1555579774.48787,-47,34,30
1555579774.51912,-47,33,30
1555579774.55037,-47,34,30
1555579774.58162,-47,33,30
1555579774.61288,-47,34,30
1555579774.64413,-47,34,30
1555579774.67538,-47,33,30
1555579774.70663,-47,34,30
1555579774.73788,-47,33,29
1555579774.76913,-47,34,30
1555579774.80038,-47,34,30
1555579774.83164,-47,34,29
1555579774.86289,-47,33,29
1555579774.89414,-48,33,29
1555579774.92539,-47,34,29
1555579774.95664,-47,34,29
1555579774.98789,-47,33,29
1555579775.01914,-47,33,30
1555579775.0504,-47,33,30
1555579775.08165,-47,34,29
1555579775.1129,-47,34,29
1555579775.14415,-48,34,29
1555579775.1754,-47,33,29
1555579775.20665,-47,34,29
1555579775.2379,-47,34,29
1555579775.26916,-47,34,29
1555579775.30041,-47,34,29
1555579775.33166,-47,33,29
1555579775.36291,-47,33,29
1555579775.39416,-47,33,29
1555579775.42541,-48,33,29
1555579775.45666,-47,33,29
1555579775.48792,-47,33,29
1555579775.51917,-48,33,29
1555579775.55042,-48,33,29
1555579775.58167,-48,33,29
1555579775.61292,-48,34,29
1555579775.64417,-47,33,29
1555579775.67542,-47,34,29
1555579775.70668,-48,33,29
1555579775.73793,-48,33,29
1555579775.76918,-47,33,29
1555579775.80043,-47,34,29
1555579775.83168,-48,33,29
1555579775.86293,-47,33,29
1555579775.89418,-47,33,29
1555579775.92544,-47,33,29
1555579775.95669,-47,33,29
1555579775.98794,-47,33,29
1555579776.01919,-47,33,29
1555579776.05044,-47,33,29
1555579776.08169,-47,33,29
1555579776.11294,-47,33,29
1555579776.1442,-47,33,29
1555579776.17545,-47,34,30
1555579776.2067,-47,33,29
1555579776.23795,-47,33,29
1555579776.2692,-47,33,29
1555579776.30045,-47,33,30
1555579776.33171,-47,34,30
1555579776.36296,-47,33,29
1555579776.39421,-47,33,29
1555579776.42546,-47,33,30
1555579776.45671,-47,33,30
1555579776.48796,-47,33,29
1555579776.51921,-47,33,30
1555579776.55047,-47,34,30
1555579776.58172,-47,33,30
1555579776.61297,-47,34,30
1555579776.64422,-47,33,30
1555579776.67547,-48,33,30
1555579776.70672,-47,33,30
1555579776.73797,-47,33,30
1555579776.76923,-47,33,30
1555579776.80048,-47,33,29
1555579776.83173,-47,33,30
1555579776.86298,-47,34,30
1555579776.89423,-47,33,30
1555579776.92548,-47,33,30
1555579776.95673,-47,33,30
1555579776.98799,-47,33,29
1555579777.01924,-47,33,29
1555579777.05049,-47,33,30
1555579777.08174,-47,33,30
1555579777.11299,-47,33,30
1555579777.14424,-47,33,30
1555579777.17549,-47,33,30
1555579777.20675,-47,33,30
1555579777.238,-47,33,29
1555579777.26925,-47,33,30
1555579777.3005,-47,33,30
1555579777.33175,-47,33,30
1555579777.363,-47,33,30
1555579777.39425,-47,33,30
1555579777.42551,-47,33,30
1555579777.45676,-47,33,30
1555579777.48801,-47,33,30
1555579777.51926,-47,33,30
1555579777.55051,-48,33,30
1555579777.58176,-47,33,30
1555579777.61301,-47,33,30
1555579777.64427,-47,33,30
1555579777.67552,-47,33,30
1555579777.70677,-47,33,30
1555579777.73802,-47,33,30
1555579777.76927,-47,33,30
1555579777.80052,-47,33,30
1555579777.83177,-47,33,30
1555579777.86303,-47,33,30
1555579777.89428,-47,33,30
1555579777.92553,-47,33,30
1555579777.95678,-47,33,30
1555579777.98803,-47,33,30
1555579778.01928,-47,33,30
1555579778.05053,-47,33,30
1555579778.08179,-47,33,30
1555579778.11304,-47,33,30
1555579778.14429,-47,33,30
1555579778.17554,-47,33,30
1555579778.20679,-47,33,30
1555579778.23804,-47,33,30
1555579778.26929,-47,33,30
1555579778.30055,-47,33,30
1555579778.3318,-47,33,30
1555579778.36305,-47,33,30
1555579778.3943,-47,33,30
1555579778.42555,-47,33,30
1555579778.4568,-47,33,30
1555579778.48805,-47,33,30
1555579778.51931,-47,33,30
1555579778.55056,-47,33,30
1555579778.58181,-47,33,30
1555579778.61306,-47,33,30
1555579778.64431,-47,33,30
1555579778.67556,-48,33,30
1555579778.70682,-47,33,30
1555579778.73807,-47,33,30
1555579778.76932,-47,33,30
1555579778.80057,-47,33,30
1555579778.83182,-47,33,30
1555579778.86307,-47,33,30
1555579778.89432,-47,33,30
1555579778.92558,-47,33,30
1555579778.95683,-47,33,30
1555579778.98808,-47,33,30
1555579779.01933,-47,33,30
1555579779.05058,-47,33,30
1555579779.08183,-47,33,30
1555579779.11308,-47,33,30
1555579779.14434,-47,33,30
1555579779.17559,-47,33,30
1555579779.20684,-47,34,30
1555579779.23809,-47,33,30
1555579779.26934,-47,33,30
1555579779.30059,-47,33,30
1555579779.33184,-47,33,30
1555579779.3631,-47,33,30
1555579779.39435,-47,33,30
1555579779.4256,-47,33,30
1555579779.45685,-47,33,30
1555579779.4881,-47,33,30
1555579779.51935,-47,33,30
1555579779.5506,-48,33,30
1555579779.58186,-47,33,29
1555579779.61311,-47,33,29
1555579779.64436,-47,33,30
1555579779.67561,-47,33,30
1555579779.70686,-47,33,30
1555579779.73811,-47,33,30
1555579779.76936,-47,33,30
1555579779.80062,-47,33,30
1555579779.83187,-47,33,29
1555579779.86312,-47,33,30
1555579779.89437,-48,33,29
1555579779.92562,-48,33,29
1555579779.95687,-47,34,29
1555579779.98812,-47,33,29
1555579780.01938,-47,33,30
1555579780.05063,-47,33,30
1555579780.08188,-47,33,29
1555579780.11313,-47,34,29
1555579780.14438,-47,33,29
1555579780.17563,-47,34,29
1555579780.20688,-48,33,29
1555579780.23814,-47,33,29
1555579780.26939,-47,33,30
1555579780.30064,-47,34,29
1555579780.33189,-47,34,29
1555579780.36314,-48,33,29
1555579780.39439,-47,33,30
1555579780.42564,-47,33,30
1555579780.4569,-48,33,29
1555579780.48815,-48,33,29
1555579780.5194,-48,34,30
1555579780.55065,-47,34,29
1555579780.5819,-47,33,29
1555579780.61315,-48,33,29
1555579780.6444,-48,33,30
1555579780.67566,-47,33,30
1555579780.70691,-47,33,30
1555579780.73816,-48,33,29
1555579780.76941,-47,33,29
1555579780.80066,-48,33,29
1555579780.83191,-48,33,29
1555579780.86316,-47,33,30
1555579780.89442,-48,33,29
1555579780.92567,-48,33,29
1555579780.95692,-48,33,29
1555579780.98817,-48,33,30
1555579781.01942,-48,33,30
1555579781.05067,-47,33,30
1555579781.08192,-48,33,29
1555579781.11318,-48,33,29
1555579781.14443,-48,33,29
1555579781.17568,-48,33,29
1555579781.20693,-48,33,29
1555579781.23818,-48,33,29
1555579781.26943,-48,33,30
1555579781.30069,-47,33,29
1555579781.33194,-48,33,29
1555579781.36319,-48,33,29
1555579781.39444,-48,33,29
1555579781.42569,-48,33,29
1555579781.45694,-48,33,29
1555579781.48819,-48,33,30
1555579781.51945,-48,33,29
1555579781.5507,-48,33,29
1555579781.58195,-48,33,30
1555579781.6132,-47,33,29
1555579781.64445,-47,33,30
1555579781.6757,-48,33,29
1555579781.70695,-48,33,30
1555579781.73821,-48,33,30
1555579781.76946,-48,33,29
1555579781.80071,-47,33,29
1555579781.83196,-47,33,30
1555579781.86321,-48,33,30
1555579781.89446,-48,33,30
1555579781.92571,-48,33,29
1555579781.95697,-48,33,30
1555579781.98822,-47,33,30
1555579782.01947,-47,33,30
1555579782.05072,-48,33,30
1555579782.08197,-47,33,30
1555579782.11322,-48,33,30
1555579782.14447,-47,33,30
1555579782.17573,-47,33,30
1555579782.20698,-47,33,30
1555579782.23823,-47,33,30
1555579782.26948,-48,33,30
1555579782.30073,-47,33,30
1555579782.33198,-48,33,30
1555579782.36323,-48,33,30
1555579782.39449,-48,33,30
1555579782.42574,-48,33,30
1555579782.45699,-48,33,30
1555579782.48824,-48,33,30
1555579782.51949,-48,33,30
1555579782.55074,-48,33,30
1555579782.58199,-47,33,30
1555579782.61325,-47,33,30
1555579782.6445,-47,33,30
1555579782.67575,-47,33,30
1555579782.707,-47,33,30
1555579782.73825,-47,33,30
1555579782.7695,-48,33,30
1555579782.80075,-47,33,30
1555579782.83201,-48,33,30
1555579782.86326,-48,33,29
1555579782.89451,-48,33,30
1555579782.92576,-47,33,30
1555579782.95701,-47,33,30
1555579782.98826,-48,33,30
1555579783.01951,-47,33,30
1555579783.05077,-47,33,30
1555579783.08202,-47,33,30
1555579783.11327,-48,33,30
1555579783.14452,-48,33,30
1555579783.17577,-48,33,30
1555579783.20702,-48,33,30
1555579783.23827,-47,33,30
1555579783.26953,-47,33,30
1555579783.30078,-47,33,30
1555579783.33203,-47,33,30
1555579783.36328,-47,33,30
1555579783.39453,-47,33,30
1555579783.42578,-47,33,30
1555579783.45703,-47,33,30
1555579783.48829,-47,33,30
1555579783.51954,-47,33,30
1555579783.55079,-47,33,30
1555579783.58204,-48,33,30
1555579783.61329,-48,33,30
1555579783.64454,-47,33,30
1555579783.6758,-47,33,30
1555579783.70705,-47,33,30
1555579783.7383,-48,33,30
1555579783.76955,-47,33,30
1555579783.8008,-47,33,30
1555579783.83205,-48,33,30
1555579783.8633,-48,33,30
1555579783.89456,-47,33,30
1555579783.92581,-48,33,30
1555579783.95706,-48,33,29
1555579783.98831,-48,33,30
1555579784.01956,-48,33,30
1555579784.05081,-48,33,30
1555579784.08206,-47,33,30
1555579784.11332,-48,33,30
1555579784.14457,-48,33,29
1555579784.17582,-48,33,29
1555579784.20707,-48,33,30
1555579784.23832,-47,33,29
1555579784.26957,-47,33,29
1555579784.30082,-48,33,29
1555579784.33208,-48,33,29
1555579784.36333,-48,33,29
1555579784.39458,-47,33,29
1555579784.42583,-48,33,30
1555579784.45708,-48,33,30
1555579784.48833,-48,33,29
1555579784.51958,-48,33,30
1555579784.55084,-48,33,30
1555579784.58209,-48,33,30
1555579784.61334,-47,33,30
1555579784.64459,-48,33,30
1555579784.67584,-48,33,30
1555579784.70709,-48,33,30
1555579784.73834,-48,33,30
1555579784.7696,-48,33,30
1555579784.80085,-48,33,30
1555579784.8321,-48,33,30
1555579784.86335,-48,33,30
1555579784.8946,-48,33,30
1555579784.92585,-48,33,30
1555579784.9571,-48,33,30
1555579784.98836,-47,33,30
1555579785.01961,-48,33,29
1555579785.05086,-48,32,30
1555579785.08211,-48,33,30
1555579785.11336,-48,33,29
1555579785.14461,-48,33,30
1555579785.17586,-47,33,30
1555579785.20712,-48,33,30
1555579785.23837,-48,33,30
1555579785.26962,-48,33,30
1555579785.30087,-47,33,30
1555579785.33212,-48,33,30
1555579785.36337,-48,33,30
1555579785.39462,-48,33,30
1555579785.42588,-48,33,30
1555579785.45713,-48,33,29
1555579785.48838,-48,33,30
1555579785.51963,-48,33,30
1555579785.55088,-48,33,29
1555579785.58213,-48,33,30
1555579785.61338,-48,33,30
1555579785.64464,-48,33,30
1555579785.67589,-48,33,30
1555579785.70714,-48,33,30
1555579785.73839,-48,33,30
1555579785.76964,-48,33,30
1555579785.80089,-48,33,30
1555579785.83214,-48,33,30
1555579785.8634,-48,33,30
1555579785.89465,-48,33,30
1555579785.9259,-48,33,30
1555579785.95715,-48,33,30
1555579785.9884,-48,33,30
1555579786.01965,-48,33,30
1555579786.0509,-48,33,30
1555579786.08216,-48,33,29
1555579786.11341,-48,33,30
1555579786.14466,-48,33,30
1555579786.17591,-48,33,30
1555579786.20716,-48,33,30
1555579786.23841,-48,33,30
1555579786.26967,-48,33,30
1555579786.30092,-48,33,30
1555579786.33217,-48,33,30
1555579786.36342,-48,33,30
1555579786.39467,-48,33,30
1555579786.42592,-48,33,30
1555579786.45717,-48,33,30
1555579786.48843,-47,33,30
1555579786.51968,-48,33,30
1555579786.55093,-48,33,29
1555579786.58218,-48,33,30
1555579786.61343,-48,33,30
1555579786.64468,-48,33,30
1555579786.67593,-48,33,30
1555579786.70719,-48,33,30
1555579786.73844,-48,33,30
1555579786.76969,-48,33,30
1555579786.80094,-48,33,30
1555579786.83219,-48,33,30
1555579786.86344,-48,33,30
1555579786.89469,-48,33,30
1555579786.92595,-48,33,30
1555579786.9572,-48,33,30
1555579786.98845,-48,33,30
1555579787.0197,-48,33,30
1555579787.05095,-48,33,30
1555579787.0822,-48,33,30
1555579787.11345,-48,33,30
1555579787.14471,-48,33,30
1555579787.17596,-48,33,30
1555579787.20721,-48,33,30
1555579787.23846,-48,33,30
1555579787.26971,-48,33,30
1555579787.30096,-48,33,30
1555579787.33221,-48,33,29
1555579787.36347,-48,33,30
1555579787.39472,-48,33,30
1555579787.42597,-47,33,30
1555579787.45722,-47,33,30
1555579787.48847,-48,33,30
1555579787.51972,-48,33,30
1555579787.55097,-48,33,30
1555579787.58223,-48,33,29
1555579787.61348,-48,33,30
1555579787.64473,-48,33,30
1555579787.67598,-48,33,30
1555579787.70723,-48,33,30
1555579787.73848,-48,33,30
1555579787.76973,-48,33,29
1555579787.80099,-48,33,29
1555579787.83224,-48,33,30
1555579787.86349,-48,33,30
1555579787.89474,-48,33,29
1555579787.92599,-48,33,29
1555579787.95724,-48,33,30
1555579787.98849,-48,33,30
1555579788.01975,-48,33,30
1555579788.051,-48,33,29
1555579788.08225,-48,33,29
1555579788.1135,-48,33,29
1555579788.14475,-48,33,29
1555579788.176,-48,33,29
1555579788.20725,-48,33,29
1555579788.23851,-48,33,29
1555579788.26976,-48,33,29
1555579788.30101,-48,33,29
1555579788.33226,-48,33,29
1555579788.36351,-48,33,29
1555579788.39476,-48,33,29
1555579788.42601,-48,33,29
1555579788.45727,-48,33,29
1555579788.48852,-48,33,29
1555579788.51977,-48,33,29
1555579788.55102,-48,33,29
1555579788.58227,-48,33,29
1555579788.61352,-48,33,29
1555579788.64478,-48,33,29
1555579788.67603,-48,33,29
1555579788.70728,-48,33,29
1555579788.73853,-48,33,29
1555579788.76978,-48,33,29
1555579788.80103,-48,33,29
1555579788.83228,-48,33,29
1555579788.86354,-48,33,29
1555579788.89479,-48,33,29
1555579788.92604,-48,33,29
1555579788.95729,-48,33,29
1555579788.98854,-48,33,28
1555579789.01979,-48,33,29
1555579789.05104,-48,33,29
1555579789.0823,-48,33,28
1555579789.11355,-48,34,28
1555579789.1448,-47,33,30
1555579789.17605,-47,33,29
1555579789.2073,-48,33,29
1555579789.23855,-48,33,29
1555579789.2698,-48,33,28
1555579789.30106,-48,33,28
1555579789.33231,-48,33,28
1555579789.36356,-48,33,28
1555579789.39481,-48,33,28
1555579789.42606,-47,33,30
1555579789.45731,-50,34,27
1555579789.48856,-47,34,29
1555579789.51982,-48,33,29
1555579789.55107,-48,34,28
1555579789.58232,-48,34,28
1555579789.61357,-48,34,28
1555579789.64482,-48,34,29
1555579789.67607,-48,34,29
1555579789.70732,-48,34,29
1555579789.73858,-48,33,30
1555579789.76983,-48,33,28
1555579789.80108,-48,33,28
1555579789.83233,-48,33,28
1555579789.86358,-48,34,29
1555579789.89483,-48,33,29
1555579789.92608,-48,33,29
1555579789.95734,-47,33,29
1555579789.98859,-48,33,29
1555579790.01984,-48,33,28
1555579790.05109,-48,33,28
1555579790.08234,-48,33,28
1555579790.11359,-47,33,29
1555579790.14484,-47,34,30
1555579790.1761,-48,33,29
1555579790.20735,-48,34,29
1555579790.2386,-48,33,28
1555579790.26985,-48,33,29
1555579790.3011,-48,33,29
1555579790.33235,-48,33,28
1555579790.3636,-48,33,29
1555579790.39486,-48,33,28
1555579790.42611,-48,33,28
1555579790.45736,-48,33,29
1555579790.48861,-48,33,29
1555579790.51986,-48,33,29
1555579790.55111,-48,34,29
1555579790.58236,-47,34,28
1555579790.61362,-48,34,29
1555579790.64487,-48,34,29
1555579790.67612,-47,34,29
1555579790.70737,-48,34,29
1555579790.73862,-48,34,29
1555579790.76987,-48,34,29
1555579790.80112,-48,34,29
1555579790.83238,-47,34,28
1555579790.86363,-48,33,29
1555579790.89488,-48,34,29
1555579790.92613,-48,33,29
1555579790.95738,-48,33,29
1555579790.98863,-47,34,29
1555579791.01989,-47,34,29
1555579791.05114,-47,35,29
1555579791.08239,-47,34,29
1555579791.11364,-47,34,29
1555579791.14489,-48,34,29
1555579791.17614,-48,34,28
1555579791.20739,-47,34,29
1555579791.23865,-47,34,29
1555579791.2699,-47,33,29
1555579791.30115,-47,33,30
1555579791.3324,-47,34,29
1555579791.36365,-47,34,28
1555579791.3949,-47,35,28
1555579791.42615,-47,35,28
1555579791.45741,-47,36,27
1555579791.48866,-47,36,28
1555579791.51991,-47,36,27
1555579791.55116,-47,36,26
1555579791.58241,-47,35,28
1555579791.61366,-46,35,29
1555579791.64491,-47,35,29
1555579791.67617,-47,36,27
1555579791.70742,-47,36,27
1555579791.73867,-47,36,27
1555579791.76992,-47,37,27
1555579791.80117,-47,36,27
1555579791.83242,-47,36,27
1555579791.86367,-46,36,28
1555579791.89493,-46,36,28
1555579791.92618,-46,36,28
1555579791.95743,-47,36,27
1555579791.98868,-47,36,27
1555579792.01993,-47,36,27
1555579792.05118,-47,36,27
1555579792.08243,-47,36,28
1555579792.11369,-47,36,27
1555579792.14494,-47,36,26
1555579792.17619,-48,36,26
1555579792.20744,-48,36,27
1555579792.23869,-47,36,27
1555579792.26994,-47,36,27
1555579792.30119,-47,36,27
1555579792.33245,-47,36,26
1555579792.3637,-47,36,26
1555579792.39495,-48,36,26
1555579792.4262,-47,36,27
1555579792.45745,-47,36,27
1555579792.4887,-47,36,27
1555579792.51995,-47,36,27
1555579792.55121,-48,36,26
1555579792.58246,-48,36,26
1555579792.61371,-48,36,26
1555579792.64496,-48,36,26
1555579792.67621,-47,36,27
1555579792.70746,-48,36,26
1555579792.73871,-47,36,26
1555579792.76997,-48,35,26
1555579792.80122,-48,35,27
1555579792.83247,-48,36,27
1555579792.86372,-47,36,27
1555579792.89497,-47,36,26
1555579792.92622,-48,36,26
1555579792.95747,-47,36,27
1555579792.98873,-48,36,27
1555579793.01998,-48,36,26
1555579793.05123,-48,35,26
1555579793.08248,-48,36,27
1555579793.11373,-47,36,26
1555579793.14498,-47,36,26
1555579793.17623,-48,36,26
1555579793.20749,-48,36,26
1555579793.23874,-48,35,26
1555579793.26999,-48,35,26
1555579793.30124,-48,35,26
1555579793.33249,-48,35,26
1555579793.36374,-48,36,26
1555579793.39499,-48,36,26
1555579793.42625,-48,36,26
1555579793.4575,-48,36,26
1555579793.48875,-49,35,25
1555579793.52,-48,35,26
1555579793.55125,-47,36,27
1555579793.5825,-48,36,26
1555579793.61376,-48,36,25
1555579793.64501,-48,35,25
1555579793.67626,-48,35,26
1555579793.70751,-48,35,26
1555579793.73876,-48,35,26
1555579793.77001,-48,35,26
1555579793.80126,-48,35,26
1555579793.83252,-48,35,26
1555579793.86377,-48,35,26
1555579793.89502,-48,35,26
1555579793.92627,-48,35,26
1555579793.95752,-48,35,26
1555579793.98877,-48,36,26
1555579794.02002,-48,35,26
1555579794.05128,-48,35,26
1555579794.08253,-48,35,26
1555579794.11378,-48,35,26
1555579794.14503,-48,35,27
1555579794.17628,-48,35,26
1555579794.20753,-48,35,26
1555579794.23878,-48,36,26
1555579794.27004,-48,36,26
1555579794.30129,-48,35,26
1555579794.33254,-48,35,26
1555579794.36379,-48,35,26
1555579794.39504,-48,35,26
1555579794.42629,-48,35,26
1555579794.45754,-48,35,26
1555579794.4888,-48,35,26
1555579794.52005,-48,35,26
1555579794.5513,-48,36,27
1555579794.58255,-48,36,26
1555579794.6138,-48,36,26
1555579794.64505,-48,36,26
1555579794.6763,-48,35,26
1555579794.70756,-48,35,27
1555579794.73881,-48,35,27
1555579794.77006,-48,35,27
1555579794.80131,-48,35,27
1555579794.83256,-48,35,26
1555579794.86381,-48,35,26
1555579794.89506,-48,35,27
1555579794.92632,-48,35,26
1555579794.95757,-48,35,26
1555579794.98882,-48,35,27
1555579795.02007,-48,35,27
1555579795.05132,-48,35,26
1555579795.08257,-48,35,26
1555579795.11382,-48,35,26
1555579795.14508,-48,35,26
1555579795.17633,-48,35,26
1555579795.20758,-49,34,26
1555579795.23883,-48,34,27
1555579795.27008,-48,35,26
1555579795.30133,-48,35,26
1555579795.33258,-49,35,26
1555579795.36384,-48,34,27
1555579795.39509,-49,34,26
1555579795.42634,-49,34,26
1555579795.45759,-49,34,27
1555579795.48884,-48,34,26
1555579795.52009,-48,34,27
1555579795.55134,-49,35,26
1555579795.5826,-49,35,27
1555579795.61385,-49,35,26
1555579795.6451,-49,34,27
1555579795.67635,-49,34,26
1555579795.7076,-49,34,27
1555579795.73885,-49,34,27
1555579795.7701,-49,34,27
1555579795.80136,-48,34,26
1555579795.83261,-48,34,26
1555579795.86386,-48,33,26
1555579795.89511,-48,34,26
1555579795.92636,-48,34,28
1555579795.95761,-49,33,27
1555579795.98887,-49,33,26
1555579796.02012,-49,33,26
1555579796.05137,-49,33,27
1555579796.08262,-49,33,27
1555579796.11387,-49,34,27
1555579796.14512,-49,34,27
1555579796.17637,-49,34,26
1555579796.20763,-49,34,27
1555579796.23888,-49,34,27
1555579796.27013,-49,34,27
1555579796.30138,-49,34,27
1555579796.33263,-49,34,27
1555579796.36388,-49,34,27
1555579796.39513,-49,34,26
1555579796.42639,-49,34,27
1555579796.45764,-49,34,27
1555579796.48889,-49,34,27
1555579796.52014,-49,34,27
1555579796.55139,-49,34,27
1555579796.58264,-49,34,27
1555579796.61389,-48,34,27
1555579796.64515,-49,34,27
1555579796.6764,-48,34,27
1555579796.70765,-48,34,27
1555579796.7389,-48,34,27
1555579796.77015,-49,34,27
1555579796.8014,-48,34,27
1555579796.83265,-48,34,27
1555579796.86391,-49,34,27
1555579796.89516,-48,34,27
1555579796.92641,-48,34,27
1555579796.95766,-49,34,27
1555579796.98891,-48,34,27
1555579797.02016,-48,35,27
1555579797.05141,-48,34,27
1555579797.08267,-48,34,27
1555579797.11392,-48,34,27
1555579797.14517,-48,34,27
1555579797.17642,-49,34,27
1555579797.20767,-48,34,27
1555579797.23892,-48,34,27
1555579797.27017,-48,34,27
1555579797.30143,-48,34,27
1555579797.33268,-48,34,27
1555579797.36393,-48,34,27
1555579797.39518,-48,34,27
1555579797.42643,-48,34,27
1555579797.45768,-48,34,27
1555579797.48893,-48,34,27
1555579797.52019,-48,34,27
1555579797.55144,-48,34,27
1555579797.58269,-48,34,27
1555579797.61394,-48,34,27
1555579797.64519,-48,34,27
1555579797.67644,-48,35,27
1555579797.70769,-48,35,27
1555579797.73895,-48,35,27
1555579797.7702,-48,35,27
1555579797.80145,-48,35,27
1555579797.8327,-48,35,27
1555579797.86395,-48,35,27
1555579797.8952,-48,35,27
1555579797.92645,-48,35,27
1555579797.95771,-48,35,27
1555579797.98896,-48,35,27
1555579798.02021,-48,35,27
1555579798.05146,-48,35,27
1555579798.08271,-48,35,27
1555579798.11396,-48,35,27
1555579798.14522,-48,35,27
1555579798.17647,-48,35,27
1555579798.20772,-48,35,27
1555579798.23897,-48,35,27
1555579798.27022,-48,35,27
1555579798.30147,-48,35,27
1555579798.33272,-48,35,27
1555579798.36398,-48,35,27
1555579798.39523,-48,35,27
1555579798.42648,-48,35,27
1555579798.45773,-48,35,27
1555579798.48898,-48,35,27
1555579798.52023,-48,35,27
1555579798.55148,-48,35,27
1555579798.58274,-48,35,27
1555579798.61399,-48,35,27
1555579798.64524,-48,35,27
1555579798.67649,-48,35,26
1555579798.70774,-48,35,27
1555579798.73899,-48,35,27
1555579798.77024,-48,35,27
1555579798.8015,-48,35,27
1555579798.83275,-48,35,26
1555579798.864,-48,35,27
1555579798.89525,-48,35,27
1555579798.9265,-48,35,27
1555579798.95775,-48,35,27
1555579798.989,-48,35,27
1555579799.02026,-48,35,26
1555579799.05151,-48,35,27
1555579799.08276,-48,35,27
1555579799.11401,-48,35,27
1555579799.14526,-48,35,26
1555579799.17651,-48,35,27
1555579799.20776,-48,35,27
1555579799.23902,-48,35,27
1555579799.27027,-48,35,27
1555579799.30152,-48,35,26
1555579799.33277,-48,35,26
1555579799.36402,-48,35,27
1555579799.39527,-48,35,27
1555579799.42652,-48,35,27
1555579799.45778,-48,35,27
1555579799.48903,-48,35,27
1555579799.52028,-48,35,27
1555579799.55153,-48,35,27
1555579799.58278,-48,35,27
1555579799.61403,-48,35,27
1555579799.64528,-48,35,27
1555579799.67654,-48,35,27
1555579799.70779,-48,35,26
1555579799.73904,-48,35,27
1555579799.77029,-48,35,27
1555579799.80154,-48,35,27
1555579799.83279,-48,35,27
1555579799.86404,-48,35,26
1555579799.8953,-48,35,27
1555579799.92655,-48,35,27
1555579799.9578,-48,35,27
1555579799.98905,-48,35,27
1555579800.0203,-48,35,27
1555579800.05155,-48,35,27
1555579800.0828,-48,35,27
1555579800.11406,-48,35,27
1555579800.14531,-48,35,27
1555579800.17656,-48,35,27
1555579800.20781,-48,35,27
1555579800.23906,-48,35,27
1555579800.27031,-48,35,27
1555579800.30156,-48,35,27
1555579800.33282,-48,34,27
1555579800.36407,-48,34,27
1555579800.39532,-48,35,27
1555579800.42657,-48,34,27
1555579800.45782,-48,34,27
1555579800.48907,-48,34,27
1555579800.52032,-48,35,27
1555579800.55158,-49,34,26
1555579800.58283,-49,34,26
1555579800.61408,-48,34,27
1555579800.64533,-48,34,27
1555579800.67658,-48,34,27
1555579800.70783,-49,34,26
1555579800.73908,-48,34,27
1555579800.77034,-49,34,26
1555579800.80159,-48,34,27
1555579800.83284,-49,34,27
1555579800.86409,-49,34,26
1555579800.89534,-49,34,27
1555579800.92659,-49,34,27
1555579800.95785,-49,34,27
1555579800.9891,-49,34,27
1555579801.02035,-49,34,27
1555579801.0516,-49,34,27
1555579801.08285,-49,34,27
1555579801.1141,-49,34,27
1555579801.14535,-49,34,27
1555579801.17661,-48,34,27
1555579801.20786,-49,34,27
1555579801.23911,-49,34,27
1555579801.27036,-49,34,27
1555579801.30161,-49,34,27
1555579801.33286,-49,34,27
1555579801.36411,-48,34,27
1555579801.39537,-49,34,27
1555579801.42662,-49,34,27
1555579801.45787,-48,34,27
1555579801.48912,-49,34,27
1555579801.52037,-49,34,26
1555579801.55162,-49,34,27
1555579801.58287,-49,34,27
1555579801.61413,-49,34,27
1555579801.64538,-49,34,27
1555579801.67663,-49,34,27
1555579801.70788,-49,34,27
1555579801.73913,-49,34,27
1555579801.77038,-49,34,27
1555579801.80163,-49,34,27
1555579801.83289,-49,34,27
1555579801.86414,-49,34,27
1555579801.89539,-48,34,27
1555579801.92664,-49,34,27
1555579801.95789,-48,34,27
1555579801.98914,-49,34,27
1555579802.02039,-49,34,27
1555579802.05165,-48,34,27
1555579802.0829,-49,34,27
1555579802.11415,-49,34,27
1555579802.1454,-48,34,27
1555579802.17665,-49,33,27
1555579802.2079,-49,34,27
1555579802.23915,-49,34,27
1555579802.27041,-49,34,27
1555579802.30166,-48,34,27
1555579802.33291,-48,34,27
1555579802.36416,-49,34,27
1555579802.39541,-49,34,27
1555579802.42666,-48,34,27
1555579802.45791,-49,34,27
1555579802.48917,-49,34,27
1555579802.52042,-49,34,27
1555579802.55167,-49,34,27
1555579802.58292,-49,34,27
1555579802.61417,-49,34,27
1555579802.64542,-49,34,27
1555579802.67667,-49,34,27
1555579802.70793,-49,34,27
1555579802.73918,-49,34,27
1555579802.77043,-48,34,27
1555579802.80168,-49,34,27
1555579802.83293,-48,34,27
1555579802.86418,-49,34,27
1555579802.89543,-48,34,27
1555579802.92669,-48,34,27
1555579802.95794,-49,34,27
1555579802.98919,-49,34,27
1555579803.02044,-48,34,27
1555579803.05169,-48,34,27
1555579803.08294,-49,34,27
1555579803.11419,-48,34,27
1555579803.14545,-48,34,27
1555579803.1767,-48,34,27
1555579803.20795,-48,34,27
1555579803.2392,-49,34,27
1555579803.27045,-49,34,27
1555579803.3017,-49,34,27
1555579803.33296,-48,34,27
1555579803.36421,-48,34,26
1555579803.39546,-49,34,27
1555579803.42671,-48,34,27
1555579803.45796,-49,34,26
1555579803.48921,-48,34,27
1555579803.52046,-49,34,26
1555579803.55172,-49,34,27
1555579803.58297,-49,34,27
1555579803.61422,-49,34,27
1555579803.64547,-49,34,26
1555579803.67672,-49,34,27
1555579803.70797,-49,34,26
1555579803.73922,-49,34,26
1555579803.77048,-49,34,26
1555579803.80173,-49,34,26
1555579803.83298,-49,34,26
1555579803.86423,-49,34,27
1555579803.89548,-49,34,27
1555579803.92673,-49,34,27
1555579803.95798,-49,34,26
1555579803.98924,-49,34,27
1555579804.02049,-49,34,26
1555579804.05174,-49,34,27
1555579804.08299,-49,34,27
1555579804.11424,-49,34,27
1555579804.14549,-49,34,26
1555579804.17674,-49,34,27
1555579804.208,-49,34,26
1555579804.23925,-49,34,27
1555579804.2705,-49,34,27
1555579804.30175,-49,34,27
1555579804.333,-49,34,27
1555579804.36425,-49,34,27
1555579804.3955,-49,34,26
1555579804.42676,-49,34,27
1555579804.45801,-49,34,27
1555579804.48926,-48,34,27
1555579804.52051,-49,34,26
1555579804.55176,-49,34,26
1555579804.58301,-49,34,26
1555579804.61426,-49,34,26
1555579804.64552,-49,34,27
1555579804.67677,-48,34,27
1555579804.70802,-49,34,27
1555579804.73927,-49,34,27
1555579804.77052,-49,34,27
1555579804.80177,-49,34,27
1555579804.83302,-48,34,27
1555579804.86428,-48,34,27
1555579804.89553,-49,34,27
1555579804.92678,-48,34,27
1555579804.95803,-49,34,27
1555579804.98928,-49,34,27
1555579805.02053,-49,34,27
1555579805.05178,-48,34,27
1555579805.08304,-48,34,27
1555579805.11429,-48,34,27
1555579805.14554,-48,34,27
1555579805.17679,-49,34,27
1555579805.20804,-48,34,27
1555579805.23929,-48,34,27
1555579805.27054,-48,34,27
1555579805.3018,-48,34,27
1555579805.33305,-48,34,27
1555579805.3643,-48,34,27
1555579805.39555,-48,34,27
1555579805.4268,-48,34,27
1555579805.45805,-48,34,27
1555579805.48931,-48,34,27
1555579805.52056,-48,34,27
1555579805.55181,-48,34,27
1555579805.58306,-48,34,27
1555579805.61431,-48,34,27
1555579805.64556,-48,34,27
1555579805.67681,-48,34,27
1555579805.70807,-48,34,27
1555579805.73932,-48,34,27
1555579805.77057,-48,34,27
1555579805.80182,-48,34,27
1555579805.83307,-48,34,27
1555579805.86432,-48,34,27
1555579805.89557,-48,34,27
1555579805.92683,-48,34,27
1555579805.95808,-48,34,27
1555579805.98933,-48,34,27
1555579806.02058,-48,34,27
1555579806.05183,-48,34,27
1555579806.08308,-48,34,27
1555579806.11433,-48,34,27
1555579806.14559,-48,34,27
1555579806.17684,-48,34,27
1555579806.20809,-48,34,27
1555579806.23934,-48,34,27
1555579806.27059,-48,34,27
1555579806.30184,-48,34,27
1555579806.33309,-48,34,27
1555579806.36435,-48,34,27
1555579806.3956,-48,34,27
1555579806.42685,-48,34,27
1555579806.4581,-48,34,27
1555579806.48935,-48,34,27
1555579806.5206,-48,34,27
1555579806.55185,-48,34,27
1555579806.58311,-48,34,27
1555579806.61436,-48,34,27
1555579806.64561,-48,34,27
1555579806.67686,-48,34,27
1555579806.70811,-48,34,27
1555579806.73936,-48,34,27
1555579806.77061,-48,34,27
1555579806.80187,-48,34,27
1555579806.83312,-48,34,27
1555579806.86437,-48,34,27
1555579806.89562,-48,34,27
1555579806.92687,-48,34,27
1555579806.95812,-48,34,27
1555579806.98937,-48,34,27
1555579807.02063,-48,34,27
1555579807.05188,-48,34,27
1555579807.08313,-48,34,27
1555579807.11438,-48,34,27
1555579807.14563,-48,34,27
1555579807.17688,-48,34,27
1555579807.20813,-48,34,27
1555579807.23939,-48,34,27
1555579807.27064,-48,34,27
1555579807.30189,-48,34,27
1555579807.33314,-48,34,27
1555579807.36439,-48,34,27
1555579807.39564,-48,34,27
1555579807.42689,-48,34,27
1555579807.45815,-48,34,27
1555579807.4894,-48,34,27
1555579807.52065,-48,34,27
1555579807.5519,-48,34,27
1555579807.58315,-48,34,27
1555579807.6144,-48,34,27
1555579807.64565,-48,34,27
1555579807.67691,-48,34,27
1555579807.70816,-48,34,27
1555579807.73941,-48,34,27
1555579807.77066,-48,34,27
1555579807.80191,-48,34,27
1555579807.83316,-48,34,27
1555579807.86441,-48,34,27
1555579807.89567,-48,34,27
1555579807.92692,-48,34,27
1555579807.95817,-48,34,27
1555579807.98942,-48,34,27
1555579808.02067,-48,34,27
1555579808.05192,-48,34,27
1555579808.08317,-48,34,27
1555579808.11443,-48,34,27
1555579808.14568,-48,34,27
1555579808.17693,-48,34,27
1555579808.20818,-48,34,27
1555579808.23943,-48,34,27
1555579808.27068,-48,34,27
